# timestamp,wx,wy,wz,ax,ay,az
1755889723166112,499.2748091603053,498.03053435114504,500.17557251908397,0.012939453125,3.991943359375,1.075439453125
1755889723171211,498.7480916030534,498.51145038167937,0.8091603053435115,0.104736328125,3.965576171875,1.09033203125
1755889723176207,498.8167938931298,498.7022900763359,499.63358778625957,0.0576171875,0.007568359375,1.064697265625
1755889723181248,498.6641221374046,498.58015267175574,1.1603053435114503,0.041748046875,3.947021484375,1.090087890625
1755889723186252,498.77862595419845,498.58015267175574,499.63358778625957,0.060791015625,0.007568359375,1.08203125
1755889723191263,499.0916030534351,498.17557251908397,0.7251908396946565,0.031494140625,3.94970703125,1.0849609375
1755889723196507,498.44274809160305,498.9465648854962,500.0916030534351,0.11572265625,0.001708984375,1.06396484375
1755889723201223,499.22137404580155,498.2519083969466,0.4198473282442748,0.007568359375,3.9638671875,1.059326171875
1755889723206238,498.6641221374046,498.76335877862596,0.366412213740458,0.097900390625,3.983642578125,1.09033203125
1755889723211246,499.14503816793894,498.37404580152673,0.0,0.041259765625,3.997314453125,1.07763671875
1755889723216422,498.59541984732823,498.6106870229008,0.916030534351145,0.088134765625,3.9541015625,1.0546875
1755889723221243,498.7557251908397,498.5267175572519,499.58015267175574,0.063232421875,0.0068359375,1.078857421875
1755889723226224,499.22137404580155,498.3358778625954,1.1450381679389312,0.03955078125,3.94970703125,1.082763671875
1755889723231249,498.2748091603053,498.9770992366412,0.030534351145038167,0.114013671875,0.009521484375,1.084228515625
1755889723236201,498.8625954198473,498.6106870229008,0.5801526717557252,0.016845703125,3.963623046875,1.0517578125
1755889723241198,498.4503816793893,498.7480916030534,0.2900763358778626,0.092529296875,3.983154296875,1.093505859375
1755889723246219,499.0916030534351,498.23664122137404,0.16793893129770993,0.02880859375,0.0,1.080322265625
1755889723251227,498.59541984732823,498.60305343511453,0.3969465648854962,0.097412109375,3.958984375,1.06640625
1755889723256225,498.98473282442745,498.42748091603056,499.99236641221376,0.0625,0.01025390625,1.08154296875
1755889723261224,498.98473282442745,498.587786259542,0.5877862595419847,0.035400390625,3.949462890625,1.08740234375
1755889723266225,498.8625954198473,498.7175572519084,499.67175572519085,0.110107421875,0.0068359375,1.072509765625
1755889723271233,499.10687022900765,498.31297709923666,0.9083969465648855,0.033447265625,3.95458984375,1.076416015625
1755889723276228,498.412213740458,498.91603053435114,499.89312977099235,0.114990234375,3.9990234375,1.07080078125
1755889723281221,499.08396946564886,498.36641221374043,0.37404580152671757,0.0068359375,3.972900390625,1.070068359375
1755889723286276,498.6793893129771,498.6106870229008,0.6106870229007634,0.10205078125,3.97802734375,1.08740234375
1755889723291226,499.0458015267176,498.1832061068702,500.19847328244276,0.05029296875,3.9951171875,1.06591796875
1755889723296248,498.63358778625957,498.7022900763359,0.8854961832061069,0.063720703125,3.948486328125,1.05908203125
1755889723301225,498.7328244274809,498.78625954198475,499.55725190839695,0.067138671875,0.011962890625,1.0869140625
1755889723306249,498.76335877862596,498.09923664122135,1.1450381679389312,0.032958984375,3.95458984375,1.08837890625
1755889723311226,498.4351145038168,498.36641221374043,499.9389312977099,0.114990234375,3.99658203125,1.06640625
1755889723316250,498.9312977099237,498.412213740458,0.5801526717557252,0.00048828125,3.96630859375,1.064208984375
1755889723321260,498.5267175572519,498.69465648854964,0.08396946564885496,0.101806640625,3.974365234375,1.0888671875
1755889723326344,499.206106870229,498.3893129770992,0.37404580152671757,0.0419921875,3.99658203125,1.0703125
1755889723331229,498.62595419847327,498.53435114503816,1.0916030534351144,0.07568359375,3.94580078125,1.065185546875
1755889723336356,498.58015267175574,498.4961832061069,499.85496183206106,0.0537109375,0.010009765625,1.060791015625
1755889723341223,499.0,498.0916030534351,0.9770992366412213,0.038818359375,3.9541015625,1.074951171875
1755889723346198,498.5038167938931,498.9618320610687,500.00763358778624,0.117919921875,0.001708984375,1.060546875
1755889723351209,499.0916030534351,498.36641221374043,0.7099236641221374,0.03173828125,3.961669921875,1.063720703125
1755889723356293,498.48854961832063,498.6412213740458,500.2290076335878,0.109130859375,3.99462890625,1.07421875
1755889723361225,499.14503816793894,498.19847328244276,0.007633587786259542,0.008544921875,3.978759765625,1.08740234375
1755889723366228,498.618320610687,498.60305343511453,0.21374045801526717,0.109375,3.968017578125,1.08837890625
1755889723371228,499.0381679389313,498.41984732824426,499.76335877862596,0.0546875,0.0009765625,1.06201171875
1755889723376341,498.5267175572519,498.59541984732823,1.015267175572519,0.051513671875,3.954345703125,1.07080078125
1755889723381234,498.7251908396947,498.6641221374046,499.5419847328244,0.080322265625,0.015625,1.08642578125
1755889723386228,498.87786259541986,498.30534351145036,0.9541984732824428,0.03955078125,3.957763671875,1.072021484375
1755889723391229,498.4580152671756,498.9312977099237,499.8473282442748,0.115966796875,3.99609375,1.072509765625
1755889723396329,499.2748091603053,498.3206106870229,0.5572519083969466,0.0048828125,3.983154296875,1.0869140625
1755889723401277,498.51145038167937,498.70992366412213,0.2366412213740458,0.1044921875,3.9697265625,1.087890625
1755889723406242,499.0610687022901,498.1679389312977,499.7709923664122,0.055908203125,0.001708984375,1.060791015625
1755889723411304,498.6564885496183,498.55725190839695,1.0916030534351144,0.0625,3.949462890625,1.068359375
1755889723416211,498.69465648854964,498.57251908396944,499.80152671755724,0.073486328125,0.011474609375,1.090576171875
1755889723421208,499.0,498.2442748091603,1.3129770992366412,0.0361328125,3.9541015625,1.077880859375
1755889723426228,498.62595419847327,498.5496183206107,499.91603053435114,0.106689453125,0.012939453125,1.081787109375
1755889723431232,499.08396946564886,498.3206106870229,0.8473282442748091,0.018798828125,3.960693359375,1.053955078125
1755889723436229,498.412213740458,498.78625954198475,500.1603053435114,0.100341796875,3.990234375,1.07666015625
1755889723441229,499.1526717557252,498.00763358778624,0.16793893129770993,0.012939453125,3.991455078125,1.08203125
1755889723446229,498.40458015267177,498.6793893129771,0.8473282442748091,0.108154296875,3.9638671875,1.08203125
1755889723451228,498.8854961832061,498.7328244274809,499.51908396946567,0.06591796875,0.00048828125,1.058349609375
1755889723456229,498.8167938931298,498.53435114503816,1.0229007633587786,0.038818359375,3.9501953125,1.0888671875
1755889723461230,498.57251908396944,498.63358778625957,499.6412213740458,0.09521484375,0.01611328125,1.083740234375
1755889723466229,499.1526717557252,498.25954198473283,1.0534351145038168,0.022705078125,3.954345703125,1.07470703125
1755889723471228,498.618320610687,498.8625954198473,499.9465648854962,0.115234375,3.990478515625,1.067626953125
1755889723476250,499.0229007633588,498.3206106870229,0.2748091603053435,0.005615234375,3.990478515625,1.076904296875
1755889723481230,498.5648854961832,498.62595419847327,0.33587786259541985,0.098388671875,3.964599609375,1.0830078125
1755889723486228,499.1832061068702,498.36641221374043,500.17557251908397,0.063720703125,0.004638671875,1.062255859375
1755889723491231,498.69465648854964,498.7022900763359,0.5114503816793893,0.041259765625,3.940673828125,1.075927734375
1755889723496230,498.51145038167937,498.55725190839695,499.77862595419845,0.085205078125,0.01611328125,1.086181640625
1755889723501231,498.9312977099237,498.2519083969466,0.7786259541984732,0.03271484375,3.9541015625,1.06396484375
1755889723506230,498.74045801526717,498.70992366412213,499.9770992366412,0.111328125,3.988037109375,1.07470703125
1755889723511230,499.0610687022901,498.36641221374043,0.4351145038167939,0.017822265625,3.957275390625,1.063232421875
1755889723516230,498.42748091603056,498.7022900763359,0.022900763358778626,0.095458984375,3.97509765625,1.083984375
1755889723521232,499.14503816793894,498.10687022900765,500.19083969465646,0.0185546875,3.994140625,1.082763671875
1755889723526233,498.618320610687,498.48854961832063,0.916030534351145,0.103271484375,3.958251953125,1.07861328125
1755889723531231,498.53435114503816,498.5267175572519,499.8167938931298,0.058349609375,0.009521484375,1.06298828125
1755889723536230,499.00763358778624,498.2824427480916,0.8473282442748091,0.032470703125,3.94921875,1.08642578125
1755889723541232,498.77862595419845,498.70992366412213,499.74045801526717,0.112060546875,0.0126953125,1.07080078125
1755889723546230,499.0381679389313,498.40458015267177,0.9236641221374046,0.018798828125,3.9560546875,1.058837890625
1755889723551229,498.25954198473283,498.99236641221376,500.1603053435114,0.100830078125,3.99169921875,1.0791015625
1755889723556230,499.0381679389313,498.30534351145036,500.19847328244276,0.017333984375,3.9873046875,1.080078125
1755889723561254,498.51908396946567,498.62595419847327,0.6259541984732825,0.10205078125,3.9609375,1.070556640625
1755889723566233,498.85496183206106,498.587786259542,499.8473282442748,0.0615234375,0.00439453125,1.0595703125
1755889723571253,498.7480916030534,498.60305343511453,1.1603053435114503,0.029541015625,3.950439453125,1.077392578125
1755889723576231,498.7175572519084,498.6412213740458,499.77862595419845,0.094970703125,0.00830078125,1.07861328125
1755889723581254,498.8854961832061,498.19083969465646,0.8625954198473282,0.0263671875,3.95068359375,1.06005859375
1755889723586232,498.3893129770992,498.85496183206106,499.7251908396947,0.103515625,3.98876953125,1.079345703125
1755889723591253,498.99236641221376,498.1603053435114,0.20610687022900764,0.012939453125,3.95849609375,1.068603515625
1755889723596236,498.6564885496183,498.69465648854964,500.206106870229,0.091796875,3.98291015625,1.091552734375
1755889723601258,499.23664122137404,498.19083969465646,500.0916030534351,0.02734375,3.991455078125,1.076171875
1755889723606232,498.6106870229008,498.4503816793893,0.5648854961832062,0.088623046875,3.95654296875,1.059814453125
1755889723611300,498.8167938931298,498.42748091603056,499.8396946564886,0.062744140625,0.008544921875,1.08837890625
1755889723616231,498.8396946564886,498.22137404580155,0.9236641221374046,0.0322265625,3.951416015625,1.096923828125
1755889723621257,498.60305343511453,498.58015267175574,499.70992366412213,0.1201171875,0.007080078125,1.082275390625
1755889723626234,499.01526717557255,498.40458015267177,0.7404580152671756,0.02294921875,3.96240234375,1.06103515625
1755889723631262,498.40458015267177,498.793893129771,0.32061068702290074,0.093505859375,3.984619140625,1.085205078125
1755889723636233,499.0687022900763,498.17557251908397,0.1450381679389313,0.02978515625,3.991943359375,1.078369140625
1755889723641234,498.48854961832063,498.64885496183206,0.6335877862595419,0.097412109375,3.957763671875,1.065185546875
1755889723646233,498.9312977099237,498.63358778625957,500.10687022900765,0.056640625,0.007080078125,1.078369140625
1755889723651233,498.85496183206106,498.40458015267177,1.0687022900763359,0.027587890625,3.945068359375,1.09326171875
1755889723656234,498.78625954198475,498.6412213740458,500.0534351145038,0.110595703125,0.014404296875,1.08642578125
1755889723661234,499.14503816793894,498.0916030534351,1.183206106870229,0.015869140625,3.959228515625,1.065185546875
1755889723666233,498.53435114503816,498.9312977099237,500.1374045801527,0.1015625,3.98583984375,1.0869140625
1755889723671232,498.98473282442745,498.1526717557252,0.37404580152671757,0.02587890625,3.99072265625,1.088623046875
1755889723676280,498.31297709923666,498.70992366412213,0.6030534351145038,0.0986328125,3.978759765625,1.095947265625
1755889723681233,499.1374045801527,498.48854961832063,499.8625954198473,0.04296875,3.994140625,1.072265625
1755889723686254,498.8396946564886,498.793893129771,0.8778625954198473,0.074951171875,3.947021484375,1.065185546875
1755889723691234,498.85496183206106,498.618320610687,499.63358778625957,0.0625,0.010009765625,1.079345703125
1755889723696290,499.0381679389313,498.2671755725191,1.0916030534351144,0.0458984375,3.94580078125,1.091796875
1755889723701236,498.64885496183206,498.78625954198475,499.9312977099237,0.123779296875,0.00146484375,1.062255859375
1755889723706262,499.0916030534351,498.62595419847327,0.5419847328244275,0.011474609375,3.96875,1.060546875
1755889723711256,498.5038167938931,498.7557251908397,0.03816793893129771,0.094970703125,3.97265625,1.09033203125
1755889723716465,499.0916030534351,498.2824427480916,0.12213740458015267,0.037109375,0.00244140625,1.072265625
1755889723721231,498.7557251908397,498.63358778625957,0.5725190839694656,0.087158203125,3.94921875,1.056884765625
1755889723726229,498.7709923664122,498.51145038167937,499.55725190839695,0.0556640625,0.010498046875,1.07861328125
1755889723731234,498.58015267175574,498.1603053435114,1.1450381679389312,0.0400390625,3.946533203125,1.08984375
1755889723736504,498.76335877862596,498.618320610687,499.63358778625957,0.07421875,0.015869140625,1.0966796875
1755889723741236,499.03053435114504,498.32824427480915,0.9312977099236641,0.0146484375,3.964111328125,1.063232421875
1755889723746228,498.58015267175574,498.85496183206106,499.9618320610687,0.096923828125,3.98291015625,1.08740234375
1755889723751229,499.0534351145038,498.2824427480916,0.06870229007633588,0.03076171875,3.991943359375,1.0732421875
1755889723756416,498.55725190839695,498.6641221374046,0.21374045801526717,0.098876953125,3.978515625,1.092041015625
1755889723761238,499.2442748091603,498.2671755725191,499.8473282442748,0.051025390625,0.0,1.071533203125
1755889723766228,498.5648854961832,498.55725190839695,0.9389312977099237,0.06298828125,3.94873046875,1.068359375
1755889723771288,498.8396946564886,498.4503816793893,499.3893129770992,0.06787109375,0.007080078125,1.09033203125
1755889723776413,499.0610687022901,498.2748091603053,0.8931297709923665,0.041259765625,3.953125,1.084228515625
1755889723781293,498.4732824427481,498.8625954198473,500.19083969465646,0.116943359375,3.996826171875,1.06640625
1755889723786230,498.9236641221374,498.21374045801525,0.549618320610687,0.004638671875,3.970703125,1.072509765625
1755889723791230,498.4580152671756,498.69465648854964,0.26717557251908397,0.09814453125,3.9755859375,1.090087890625
1755889723796403,499.0687022900763,498.10687022900765,500.2290076335878,0.048095703125,3.994384765625,1.07373046875
1755889723801265,498.4580152671756,498.53435114503816,0.9465648854961832,0.064697265625,3.952392578125,1.065185546875
1755889723806248,498.67175572519085,498.39694656488547,499.74045801526717,0.0693359375,0.011962890625,1.079833984375
1755889723811251,499.0534351145038,498.2290076335878,0.7099236641221374,0.039794921875,3.95703125,1.08154296875
1755889723816251,498.48854961832063,499.0381679389313,499.9389312977099,0.1181640625,0.001708984375,1.070068359375
1755889723821239,498.96946564885496,498.37404580152673,0.2366412213740458,0.00732421875,3.9677734375,1.066162109375
1755889723826248,498.44274809160305,498.90076335877865,0.20610687022900764,0.10791015625,3.9931640625,1.066650390625
1755889723831220,499.0763358778626,498.19847328244276,500.1297709923664,0.0361328125,3.9970703125,1.071533203125
1755889723836214,498.41984732824426,498.4351145038168,0.6183206106870229,0.103515625,3.968994140625,1.0888671875
1755889723841240,498.6793893129771,498.39694656488547,499.7022900763359,0.0478515625,0.003173828125,1.05419921875
1755889723846234,498.7480916030534,498.57251908396944,1.0687022900763359,0.0537109375,3.94384765625,1.074462890625
1755889723851229,498.46564885496184,498.4503816793893,499.7328244274809,0.08154296875,0.0126953125,1.08544921875
1755889723856304,499.0763358778626,498.2290076335878,1.1984732824427482,0.0439453125,3.95849609375,1.065673828125
1755889723861249,498.5419847328244,498.7175572519084,499.80152671755724,0.115478515625,3.992919921875,1.073486328125
1755889723866241,499.14503816793894,498.206106870229,0.7175572519083969,0.00244140625,3.974853515625,1.0732421875
1755889723871259,498.6412213740458,498.74045801526717,0.0916030534351145,0.1025390625,3.9716796875,1.083984375
1755889723876474,499.0229007633588,498.1297709923664,500.1679389312977,0.048583984375,3.9990234375,1.05810546875
1755889723881239,498.57251908396944,498.57251908396944,0.9694656488549618,0.064453125,3.94970703125,1.070556640625
1755889723886237,498.89312977099235,498.51145038167937,499.5267175572519,0.07421875,0.014404296875,1.0869140625
1755889723891238,498.7480916030534,498.381679389313,1.1984732824427482,0.035888671875,3.956787109375,1.078125
1755889723896373,498.7175572519084,498.6564885496183,499.9389312977099,0.119140625,3.99658203125,1.071533203125
1755889723901242,499.17557251908397,498.2519083969466,0.6564885496183206,0.001220703125,3.97265625,1.066650390625
1755889723906239,498.59541984732823,498.76335877862596,500.2671755725191,0.096435546875,3.9736328125,1.09423828125
1755889723911234,499.2442748091603,498.1145038167939,500.1297709923664,0.01318359375,3.987060546875,1.073486328125
1755889723916231,498.5038167938931,498.4503816793893,0.816793893129771,0.103759765625,3.9677734375,1.07421875
1755889723921239,498.9236641221374,498.64885496183206,499.8167938931298,0.05712890625,0.000732421875,1.05859375
1755889723926243,498.6106870229008,498.69465648854964,1.0763358778625953,0.042236328125,3.945556640625,1.07666015625
1755889723931245,498.55725190839695,498.7175572519084,499.42748091603056,0.079345703125,0.0126953125,1.08740234375
1755889723936228,499.1145038167939,498.2824427480916,1.0916030534351144,0.037353515625,3.958740234375,1.075439453125
1755889723941230,498.37404580152673,498.9541984732824,0.007633587786259542,0.116455078125,3.98779296875,1.07421875
1755889723946235,499.1145038167939,498.17557251908397,0.10687022900763359,0.007568359375,3.982666015625,1.082763671875
1755889723951238,498.4580152671756,498.35114503816794,0.3435114503816794,0.099365234375,3.974365234375,1.08154296875
1755889723956231,498.99236641221376,498.39694656488547,499.8167938931298,0.05126953125,0.0009765625,1.065185546875
1755889723961236,498.63358778625957,498.53435114503816,1.0916030534351144,0.05517578125,3.949462890625,1.07275390625
1755889723966237,498.7175572519084,498.5648854961832,499.80152671755724,0.08203125,0.01025390625,1.0927734375
1755889723971230,499.00763358778624,498.14503816793894,1.183206106870229,0.039794921875,3.95068359375,1.07470703125
1755889723976229,498.63358778625957,498.6793893129771,499.64885496183206,0.11474609375,3.9931640625,1.05908203125
1755889723981267,499.0381679389313,498.39694656488547,0.732824427480916,0.001708984375,3.977294921875,1.080078125
1755889723986249,498.48854961832063,498.7709923664122,0.022900763358778626,0.10595703125,3.96875,1.087890625
1755889723991237,499.08396946564886,498.1679389312977,0.17557251908396945,0.01953125,3.988037109375,1.087158203125
1755889723996465,498.53435114503816,498.5038167938931,0.5877862595419847,0.099853515625,3.9658203125,1.076171875
1755889724001257,498.8473282442748,498.6641221374046,499.8854961832061,0.0546875,0.007080078125,1.065185546875
1755889724006263,498.90076335877865,498.37404580152673,1.1221374045801527,0.03466796875,3.94189453125,1.0859375
1755889724011227,498.7328244274809,498.74045801526717,499.7709923664122,0.093994140625,0.013916015625,1.08642578125
1755889724016223,498.9770992366412,498.4351145038168,0.7480916030534351,0.029296875,3.960205078125,1.060302734375
1755889724021235,498.5267175572519,498.9618320610687,500.00763358778624,0.109130859375,3.988037109375,1.079345703125
1755889724026234,499.1145038167939,498.3435114503817,0.20610687022900764,0.010498046875,3.98779296875,1.079833984375
1755889724031243,498.48091603053433,498.74045801526717,0.4122137404580153,0.105712890625,3.96630859375,1.086669921875
1755889724036244,499.0,498.21374045801525,499.9083969465649,0.048583984375,0.001708984375,1.058837890625
1755889724041246,498.76335877862596,498.63358778625957,0.9618320610687023,0.044189453125,3.953125,1.071044921875
1755889724046240,498.63358778625957,498.4503816793893,499.7557251908397,0.07763671875,0.01025390625,1.076416015625
1755889724051253,498.80152671755724,498.3358778625954,1.015267175572519,0.0341796875,3.9541015625,1.07373046875
1755889724056326,498.6412213740458,498.53435114503816,499.8320610687023,0.114990234375,3.98974609375,1.072021484375
1755889724061966,499.08396946564886,498.3587786259542,0.7175572519083969,0.021240234375,3.9599609375,1.054443359375
1755889724066314,498.31297709923666,498.64885496183206,0.25190839694656486,0.0927734375,3.9873046875,1.091064453125
1755889724071257,499.1526717557252,498.48091603053433,500.0,0.018310546875,3.989013671875,1.080078125
1755889724076253,498.6793893129771,498.7022900763359,0.9389312977099237,0.093994140625,3.9638671875,1.0732421875
1755889724081257,498.76335877862596,498.55725190839695,499.53435114503816,0.0634765625,3.99609375,1.060302734375
1755889724086234,499.206106870229,498.22137404580155,0.8625954198473282,0.0341796875,3.951416015625,1.07080078125
1755889724091318,498.6106870229008,498.7709923664122,499.7328244274809,0.108154296875,0.012451171875,1.08154296875
1755889724096245,499.206106870229,498.2519083969466,0.4351145038167939,0.024658203125,3.9580078125,1.046875
1755889724101224,498.3893129770992,498.618320610687,0.13740458015267176,0.10205078125,3.987548828125,1.07958984375
1755889724106231,498.9541984732824,497.98473282442745,500.12213740458014,0.01416015625,3.98486328125,1.0859375
1755889724111240,498.6106870229008,498.6564885496183,0.732824427480916,0.099609375,3.959716796875,1.0732421875
1755889724116239,498.85496183206106,498.67175572519085,499.87786259541986,0.05712890625,0.001708984375,1.06640625
1755889724121261,498.64885496183206,498.37404580152673,0.9770992366412213,0.033203125,3.9462890625,1.07568359375
1755889724126262,498.7175572519084,498.7480916030534,499.80152671755724,0.094482421875,0.010009765625,1.080078125
1755889724131243,499.1374045801527,498.36641221374043,0.5572519083969466,0.029541015625,3.960205078125,1.056396484375
1755889724136223,498.55725190839695,498.8473282442748,0.08396946564885496,0.10498046875,3.9814453125,1.071533203125
1755889724141225,499.1297709923664,498.1374045801527,0.03816793893129771,0.0146484375,3.9814453125,1.071044921875
1755889724146225,498.4961832061069,498.57251908396944,0.7022900763358778,0.109375,3.966796875,1.091552734375
1755889724151224,498.82442748091603,498.55725190839695,499.9541984732824,0.035888671875,3.997802734375,1.074462890625
1755889724156251,498.7557251908397,498.618320610687,1.0458015267175573,0.09326171875,3.95458984375,1.07177734375
1755889724161227,498.80916030534354,498.63358778625957,499.48854961832063,0.05615234375,0.008056640625,1.069580078125
1755889724166221,499.09923664122135,498.31297709923666,1.1450381679389312,0.03125,3.951171875,1.09130859375
1755889724171243,498.4961832061069,498.82442748091603,500.0610687022901,0.1044921875,0.01025390625,1.07421875
1755889724176303,499.3435114503817,498.48091603053433,0.8015267175572519,0.01416015625,3.96240234375,1.046630859375
1755889724181262,498.51908396946567,498.70992366412213,0.25190839694656486,0.093994140625,3.982421875,1.07666015625
1755889724186233,499.1603053435114,498.23664122137404,500.1297709923664,0.025146484375,3.98828125,1.07763671875
1755889724191267,498.68702290076334,498.60305343511453,0.9007633587786259,0.0986328125,3.960693359375,1.075927734375
1755889724196252,499.01526717557255,498.48091603053433,499.60305343511453,0.061279296875,0.01318359375,1.064208984375
1755889724201250,499.1526717557252,498.23664122137404,1.0076335877862594,0.033935546875,3.951904296875,1.082275390625
1755889724206257,498.60305343511453,498.67175572519085,499.7175572519084,0.10595703125,0.012939453125,1.0771484375
1755889724211258,499.0610687022901,498.2824427480916,0.7022900763358778,0.025146484375,3.9619140625,1.0498046875
1755889724216248,498.53435114503816,498.7328244274809,0.22900763358778625,0.118896484375,0.004638671875,1.068115234375
1755889724221240,499.1526717557252,498.25954198473283,500.2442748091603,0.011474609375,3.9697265625,1.07666015625
1755889724226290,498.5496183206107,498.6641221374046,0.6335877862595419,0.101806640625,3.979736328125,1.096923828125
1755889724231279,498.7480916030534,498.57251908396944,499.96946564885496,0.043212890625,3.99462890625,1.081298828125
1755889724236245,498.87786259541986,498.37404580152673,1.0229007633587786,0.083251953125,3.94970703125,1.061767578125
1755889724241315,498.9389312977099,498.70992366412213,499.6564885496183,0.060302734375,0.011962890625,1.081787109375
1755889724246252,499.19847328244276,498.25954198473283,1.0458015267175573,0.040771484375,3.94921875,1.0849609375
1755889724251294,498.5648854961832,498.76335877862596,499.9770992366412,0.11865234375,0.00732421875,1.06591796875
1755889724256229,498.9770992366412,498.44274809160305,0.10687022900763359,0.011474609375,3.96435546875,1.064697265625
1755889724261887,498.4503816793893,498.8396946564886,0.25190839694656486,0.1123046875,3.990966796875,1.061767578125
1755889724266259,499.10687022900765,498.3893129770992,500.0,0.034423828125,3.998046875,1.072265625
1755889724271271,498.62595419847327,498.6106870229008,0.9389312977099237,0.093017578125,3.955810546875,1.067626953125
1755889724276385,498.59541984732823,498.70992366412213,499.381679389313,0.06201171875,0.0126953125,1.08154296875
1755889724281290,498.91603053435114,498.22137404580155,0.9618320610687023,0.034912109375,3.9560546875,1.087890625
1755889724286272,498.3206106870229,498.98473282442745,499.7709923664122,0.122802734375,0.0087890625,1.081787109375
1755889724291270,498.98473282442745,498.22137404580155,0.4732824427480916,0.009033203125,3.95654296875,1.061279296875
1755889724296332,498.39694656488547,498.77862595419845,0.09923664122137404,0.1162109375,3.991943359375,1.0615234375
1755889724301254,499.32824427480915,498.206106870229,500.0534351145038,3.99755859375,3.971435546875,1.07275390625
1755889724306369,498.60305343511453,498.40458015267177,0.7786259541984732,0.10302734375,3.97900390625,1.088623046875
1755889724311279,498.87786259541986,498.42748091603056,499.76335877862596,0.048583984375,3.996337890625,1.063720703125
1755889724316306,498.8396946564886,498.39694656488547,1.099236641221374,0.061279296875,3.94775390625,1.0654296875
1755889724321305,498.6412213740458,498.40458015267177,499.57251908396944,0.0673828125,0.01416015625,1.079833984375
1755889724326764,499.23664122137404,498.1145038167939,1.0076335877862594,0.0341796875,3.9541015625,1.08056640625
1755889724331850,498.59541984732823,498.6564885496183,500.0381679389313,0.0966796875,0.013427734375,1.089111328125
1755889724336916,499.00763358778624,498.32824427480915,0.732824427480916,0.027587890625,3.958984375,1.06103515625
1755889724346349,498.9083969465649,498.4732824427481,500.23664122137404,0.046630859375,3.99365234375,1.061767578125
1755889724351134,498.6793893129771,498.31297709923666,1.0076335877862594,0.07080078125,3.94873046875,1.0634765625
1755889724353218,498.5496183206107,498.74045801526717,0.4122137404580153,0.094970703125,3.98583984375,1.075927734375
1755889724356448,498.7480916030534,498.4732824427481,499.44274809160305,0.058837890625,0.012451171875,1.086669921875
1755889724361274,499.1374045801527,498.2442748091603,0.9618320610687023,0.03173828125,3.9560546875,1.08642578125
1755889724366441,498.587786259542,498.7557251908397,499.9618320610687,0.084228515625,0.011962890625,1.093505859375
1755889724371292,499.0534351145038,498.25954198473283,0.44274809160305345,0.00341796875,3.97314453125,1.067626953125
1755889724376452,498.36641221374043,498.74045801526717,0.3893129770992366,0.110107421875,3.994384765625,1.07421875
1755889724381277,499.09923664122135,498.381679389313,500.08396946564886,0.00830078125,3.981201171875,1.07861328125
1755889724386280,498.60305343511453,498.57251908396944,1.0305343511450382,0.1025390625,3.97021484375,1.078369140625
1755889724391277,498.82442748091603,498.5419847328244,499.58015267175574,0.052734375,0.0048828125,1.057373046875
1755889724396311,498.80152671755724,498.3435114503817,0.8549618320610687,0.03662109375,3.945556640625,1.064453125
1755889724401290,498.63358778625957,498.80152671755724,499.85496183206106,0.084228515625,0.0146484375,1.089599609375
1755889724406294,499.1679389312977,498.206106870229,0.5267175572519084,0.02685546875,3.950927734375,1.076904296875
1755889724411268,498.3358778625954,498.74045801526717,0.0916030534351145,0.11328125,3.994873046875,1.076416015625
1755889724416288,499.1832061068702,498.0916030534351,0.06870229007633588,0.007568359375,3.977783203125,1.073486328125
1755889724421270,498.8854961832061,498.64885496183206,0.916030534351145,0.104736328125,3.96923828125,1.091796875
1755889724426284,498.87786259541986,498.51145038167937,499.6106870229008,0.052001953125,0.000244140625,1.06103515625
1755889724431294,498.80152671755724,498.40458015267177,0.9541984732824428,0.046630859375,3.949462890625,1.06982421875
1755889724436303,498.7480916030534,498.7709923664122,499.48091603053433,0.079833984375,0.01708984375,1.086181640625
1755889724441277,499.19847328244276,498.4732824427481,0.6335877862595419,0.03173828125,3.949951171875,1.077392578125
1755889724446286,498.4961832061069,498.8320610687023,500.1297709923664,0.11083984375,3.995849609375,1.06591796875
1755889724451247,499.0687022900763,498.25954198473283,500.0534351145038,0.0068359375,3.97509765625,1.086669921875
1755889724456509,498.587786259542,498.63358778625957,0.015267175572519083,0.103515625,3.982666015625,1.084716796875
1755889724462596,499.0229007633588,498.19847328244276,0.24427480916030533,0.010986328125,3.968505859375,1.06787109375
1755889724466252,498.6793893129771,498.58015267175574,0.8091603053435115,0.097412109375,3.9541015625,1.072509765625
1755889724471376,498.8473282442748,498.68702290076334,499.6412213740458,0.06298828125,0.004638671875,1.070068359375
1755889724479023,498.8473282442748,498.618320610687,0.31297709923664124,0.091552734375,3.977294921875,1.091552734375
1755889724481849,498.48854961832063,498.587786259542,499.91603053435114,0.105712890625,0.012451171875,1.089111328125
1755889724486282,499.2442748091603,498.32824427480915,0.4122137404580153,0.02197265625,3.955078125,1.057861328125
1755889724491296,498.62595419847327,498.69465648854964,0.06870229007633588,0.096435546875,3.98486328125,1.08056640625
1755889724496589,499.1297709923664,498.23664122137404,500.2442748091603,0.018310546875,3.98681640625,1.08642578125
1755889724501281,498.40458015267177,498.63358778625957,1.0305343511450382,0.10107421875,3.958740234375,1.067626953125
1755889724506250,498.5496183206107,498.5648854961832,499.69465648854964,0.055419921875,0.004150390625,1.068359375
1755889724511271,499.01526717557255,498.2519083969466,0.9465648854961832,0.03857421875,3.951171875,1.07666015625
1755889724516330,498.7557251908397,498.70992366412213,499.7480916030534,0.067626953125,0.0146484375,1.079345703125
1755889724521383,499.1297709923664,498.40458015267177,0.8473282442748091,0.021728515625,3.953857421875,1.059326171875
1755889724526472,498.4503816793893,498.76335877862596,0.10687022900763359,0.119873046875,0.001220703125,1.067626953125
1755889724532409,498.82442748091603,498.3893129770992,0.33587786259541985,0.03173828125,3.955810546875,1.076171875
1755889724536325,498.64885496183206,498.5496183206107,0.8549618320610687,0.100341796875,3.97412109375,1.091552734375
1755889724541293,498.7328244274809,498.4503816793893,499.69465648854964,0.038818359375,3.998291015625,1.07421875
1755889724546329,498.7709923664122,498.39694656488547,1.0534351145038168,0.071533203125,3.947265625,1.063720703125
1755889724551300,498.5496183206107,498.4580152671756,499.62595419847327,0.06396484375,0.01611328125,1.088623046875
1755889724557946,498.82442748091603,498.46564885496184,1.2213740458015268,0.046630859375,3.948486328125,1.078857421875
1755889724561731,498.4961832061069,498.7022900763359,500.2442748091603,0.11865234375,3.99755859375,1.063232421875
1755889724566310,498.9770992366412,498.22137404580155,0.03816793893129771,0.01171875,3.971923828125,1.0693359375
1755889724571297,498.77862595419845,498.46564885496184,0.48091603053435117,0.096923828125,3.97412109375,1.091796875
1755889724576334,498.9083969465649,498.4351145038168,499.7328244274809,0.0361328125,3.99951171875,1.07861328125
1755889724581278,498.587786259542,498.6412213740458,1.0458015267175573,0.078369140625,3.94677734375,1.072021484375
1755889724586322,498.77862595419845,498.53435114503816,499.7709923664122,0.05810546875,0.00634765625,1.0810546875
1755889724591273,498.9389312977099,498.2748091603053,1.0305343511450382,0.0341796875,3.94970703125,1.08349609375
1755889724596682,498.6793893129771,498.8167938931298,499.8702290076336,0.0830078125,0.015869140625,1.0791015625
1755889724601372,498.96946564885496,498.36641221374043,0.31297709923664124,0.001220703125,3.965087890625,1.06298828125
1755889724606260,498.2748091603053,498.8473282442748,0.10687022900763359,0.096435546875,3.9814453125,1.092041015625
1755889724611451,499.0687022900763,498.2977099236641,500.09923664122135,0.0107421875,3.984375,1.07275390625
1755889724616294,498.70992366412213,498.51145038167937,1.1984732824427482,0.10986328125,3.96728515625,1.08837890625
1755889724621273,498.7251908396947,498.6564885496183,499.96946564885496,0.0537109375,0.0068359375,1.06005859375
1755889724626279,499.01526717557255,498.08396946564886,1.0305343511450382,0.0439453125,3.94873046875,1.081298828125
1755889724631292,498.6641221374046,498.7175572519084,500.1297709923664,0.085205078125,0.016845703125,1.09033203125
1755889724641186,498.6641221374046,498.4961832061069,499.7175572519084,0.109619140625,3.9892578125,1.07177734375
1755889724646687,499.0687022900763,498.19083969465646,0.06870229007633588,0.007080078125,3.981201171875,1.076416015625
1755889724649037,498.74045801526717,498.2290076335878,1.0305343511450382,0.039306640625,3.948486328125,1.0810546875
1755889724651407,498.4503816793893,498.6564885496183,0.7938931297709924,0.10107421875,3.96875,1.079833984375
1755889724656372,498.8473282442748,498.68702290076334,499.5496183206107,0.052490234375,0.002197265625,1.047607421875
1755889724661275,498.69465648854964,498.2290076335878,0.8625954198473282,0.043212890625,3.95361328125,1.068359375
1755889724666318,498.6793893129771,498.6793893129771,499.68702290076334,0.07861328125,0.015625,1.07275390625
1755889724671400,499.03053435114504,498.40458015267177,0.8396946564885496,0.029541015625,3.95556640625,1.066650390625
1755889724676372,498.37404580152673,498.7251908396947,500.0763358778626,0.1123046875,3.9912109375,1.067626953125
1755889724681526,498.9541984732824,498.42748091603056,0.26717557251908397,0.02197265625,3.9609375,1.056884765625
1755889724686280,498.5267175572519,498.4503816793893,0.8244274809160306,0.099365234375,3.96533203125,1.082275390625
1755889724691357,499.25954198473283,498.31297709923666,499.80916030534354,0.02734375,3.9951171875,1.081298828125
1755889724696700,498.8320610687023,498.7328244274809,1.0229007633587786,0.091552734375,3.951171875,1.067138671875
1755889724701315,499.2748091603053,498.2671755725191,500.09923664122135,0.062255859375,0.009765625,1.069091796875
1755889724706283,498.98473282442745,498.17557251908397,0.9770992366412213,0.03369140625,3.95166015625,1.083251953125
1755889724711351,498.46564885496184,498.87786259541986,500.03053435114504,0.118408203125,0.00537109375,1.0751953125
1755889724716326,499.09923664122135,498.10687022900765,0.09923664122137404,0.0146484375,3.96044921875,1.058837890625
1755889724721376,498.5496183206107,498.55725190839695,0.5267175572519084,0.095458984375,3.98193359375,1.093505859375
1755889724726347,498.9770992366412,498.48091603053433,500.0229007633588,0.032958984375,3.99755859375,1.085693359375
1755889724731953,498.51145038167937,498.68702290076334,0.15267175572519084,0.103271484375,3.970947265625,1.093505859375
1755889724736379,498.7480916030534,498.64885496183206,499.96946564885496,0.05908203125,0.00927734375,1.0703125
1755889724741291,498.587786259542,498.58015267175574,0.9465648854961832,0.029296875,3.9580078125,1.07861328125
1755889724746435,498.80916030534354,498.9083969465649,499.60305343511453,0.112548828125,0.009765625,1.086669921875
1755889724751270,498.99236641221376,498.2290076335878,0.26717557251908397,0.019775390625,3.960205078125,1.06005859375
1755889724756611,498.6106870229008,498.53435114503816,500.2519083969466,0.116943359375,3.99365234375,1.06982421875
1755889724761270,499.0,498.2290076335878,500.22137404580155,0.028076171875,3.99609375,1.076904296875
1755889724768002,498.4732824427481,498.8625954198473,500.1526717557252,0.102294921875,3.982177734375,1.071533203125
1755889724771762,499.0229007633588,498.412213740458,499.89312977099235,0.043701171875,3.999755859375,1.073974609375
1755889724776967,498.9618320610687,498.4961832061069,0.9923664122137404,0.0546875,3.9521484375,1.07275390625
1755889724781308,498.60305343511453,498.7251908396947,499.8625954198473,0.07177734375,0.01171875,1.090087890625
1755889724786337,499.00763358778624,498.32824427480915,0.5877862595419847,0.03076171875,3.951904296875,1.074462890625
1755889724791995,498.70992366412213,498.587786259542,499.7709923664122,0.1025390625,0.009765625,1.078369140625
1755889724796397,499.1832061068702,498.2442748091603,500.08396946564886,0.0009765625,3.97265625,1.07373046875
1755889724803542,498.6564885496183,498.6641221374046,500.0763358778626,0.119873046875,3.991455078125,1.06396484375
1755889724806260,498.7480916030534,498.6412213740458,499.78625954198475,0.047119140625,0.0029296875,1.06884765625
1755889724811250,498.7557251908397,498.37404580152673,0.8015267175572519,0.05712890625,3.947509765625,1.077392578125
1755889724816336,498.6412213740458,498.4961832061069,499.6793893129771,0.081787109375,0.017578125,1.081787109375
1755889724821481,498.8702290076336,498.3206106870229,0.9618320610687023,0.03515625,3.95654296875,1.07373046875
1755889724826362,498.42748091603056,498.68702290076334,499.9618320610687,0.114013671875,3.996337890625,1.064453125
1755889724831336,499.10687022900765,498.2290076335878,0.2900763358778626,0.00439453125,3.979248046875,1.0654296875
1755889724836370,498.381679389313,498.69465648854964,0.48854961832061067,0.103271484375,3.9716796875,1.08544921875
1755889724842643,499.01526717557255,498.1297709923664,0.37404580152671757,0.001953125,3.97021484375,1.068115234375
1755889724846441,498.7175572519084,498.39694656488547,0.7938931297709924,0.09814453125,3.95166015625,1.07373046875
1755889724851321,498.6793893129771,498.7251908396947,499.76335877862596,0.054931640625,0.007080078125,1.072509765625
1755889724856784,498.9618320610687,498.3435114503817,1.1145038167938932,0.042236328125,3.953857421875,1.075927734375
1755889724861318,498.55725190839695,498.8167938931298,499.7709923664122,0.106201171875,0.008544921875,1.083740234375
1755889724866259,498.9389312977099,498.19847328244276,0.07633587786259542,0.018798828125,3.96044921875,1.0595703125
1755889724871322,498.2977099236641,498.8396946564886,500.2671755725191,0.10791015625,3.98193359375,1.075927734375
1755889724876444,499.0916030534351,498.10687022900765,500.10687022900765,0.0263671875,3.996337890625,1.07421875
1755889724881328,498.60305343511453,498.59541984732823,0.5954198473282443,0.0966796875,3.95947265625,1.072509765625
1755889724886336,498.8396946564886,498.6106870229008,499.68702290076334,0.06298828125,0.00732421875,1.0673828125
1755889724893029,498.6412213740458,498.51908396946567,0.8473282442748091,0.105712890625,3.962890625,1.087890625
1755889724896419,498.46564885496184,498.9236641221374,499.7709923664122,0.1123046875,0.01025390625,1.085205078125
1755889724901344,498.9312977099237,498.42748091603056,0.42748091603053434,0.015380859375,3.9560546875,1.0556640625
1755889724906296,498.76335877862596,498.6106870229008,0.21374045801526717,0.09814453125,3.98095703125,1.079833984375
1755889724911279,499.19083969465646,498.3358778625954,500.0381679389313,0.0263671875,3.998779296875,1.078857421875
1755889724917066,498.67175572519085,498.3893129770992,0.6335877862595419,0.099365234375,3.97509765625,1.096923828125
1755889724921355,498.80152671755724,498.5419847328244,499.6564885496183,0.043212890625,0.0,1.068359375
1755889724926565,498.8320610687023,498.381679389313,0.8396946564885496,0.069580078125,3.952880859375,1.0654296875
1755889724931295,498.793893129771,498.58015267175574,499.7022900763359,0.064208984375,0.00830078125,1.086669921875
1755889724936548,499.17557251908397,498.35114503816794,0.816793893129771,0.028076171875,3.953369140625,1.07958984375
1755889724941887,498.4732824427481,498.6793893129771,500.0381679389313,0.114501953125,3.994384765625,1.066162109375
1755889724946758,499.31297709923666,498.14503816793894,0.2748091603053435,0.00634765625,3.96923828125,1.071533203125
1755889724951297,498.4961832061069,498.40458015267177,0.7251908396946565,0.09912109375,3.974365234375,1.09423828125
1755889724956315,498.8854961832061,498.57251908396944,499.6412213740458,0.04541015625,3.994873046875,1.065185546875
1755889724961273,499.03053435114504,498.3206106870229,0.8320610687022901,0.073974609375,3.946533203125,1.072021484375
1755889724966531,498.70992366412213,498.63358778625957,499.98473282442745,0.06396484375,0.015625,1.07958984375
1755889724971313,499.09923664122135,498.25954198473283,0.8931297709923665,0.036376953125,3.95703125,1.075927734375
1755889724976774,498.5267175572519,498.8320610687023,499.9465648854962,0.09521484375,0.007568359375,1.078369140625
1755889724981260,499.0458015267176,498.21374045801525,500.22137404580155,0.007080078125,3.973388671875,1.08056640625
1755889724986416,498.5648854961832,498.587786259542,0.6717557251908397,0.1015625,3.971435546875,1.091796875
1755889724991362,498.9618320610687,498.0458015267176,500.22137404580155,0.040771484375,3.99560546875,1.060546875
1755889724996315,498.78625954198475,498.5648854961832,0.9923664122137404,0.069580078125,3.942138671875,1.077880859375
1755889725001291,498.80916030534354,498.5496183206107,499.793893129771,0.073974609375,0.009765625,1.07763671875
1755889725006298,499.10687022900765,498.2977099236641,1.0076335877862594,0.03466796875,3.95458984375,1.0791015625
1755889725011277,498.4732824427481,498.96946564885496,499.87786259541986,0.10205078125,0.0068359375,1.08544921875
1755889725016329,499.03053435114504,498.3206106870229,0.2748091603053435,0.025634765625,3.962158203125,1.06396484375
1755889725021299,498.40458015267177,498.5267175572519,0.20610687022900764,0.1083984375,3.9853515625,1.06640625
1755889725026348,499.0,498.2442748091603,0.8702290076335878,0.025634765625,3.956787109375,1.07568359375
1755889725031388,498.68702290076334,498.5496183206107,0.732824427480916,0.10400390625,3.9658203125,1.06884765625
1755889725036373,498.69465648854964,498.55725190839695,499.5267175572519,0.064697265625,0.005859375,1.0654296875
1755889725041446,498.8473282442748,498.36641221374043,0.8473282442748091,0.04345703125,3.95263671875,1.087646484375
1755889725046253,498.57251908396944,498.7709923664122,500.0610687022901,0.100341796875,0.009033203125,1.0849609375
1755889725051604,499.09923664122135,498.3435114503817,0.5038167938931297,0.022216796875,3.960693359375,1.0673828125
1755889725056601,498.5419847328244,498.793893129771,500.2519083969466,0.1025390625,3.98291015625,1.08349609375
1755889725061316,499.29007633587787,498.2671755725191,0.19083969465648856,0.015869140625,3.99267578125,1.08251953125
1755889725066483,498.6106870229008,498.62595419847327,0.9465648854961832,0.0947265625,3.96240234375,1.072998046875
1755889725071283,498.7709923664122,498.35114503816794,499.9541984732824,0.059326171875,0.0048828125,1.06689453125
1755889725076328,498.8625954198473,498.19083969465646,1.0229007633587786,0.03662109375,3.95068359375,1.0830078125
1755889725081251,498.57251908396944,498.7557251908397,499.8396946564886,0.107421875,0.01318359375,1.088623046875
1755889725086508,499.00763358778624,498.23664122137404,0.7709923664122137,0.03125,3.956787109375,1.080078125
1755889725091348,498.2824427480916,498.7709923664122,0.1984732824427481,0.11083984375,3.99658203125,1.0712890625
1755889725096481,498.85496183206106,498.2290076335878,0.06870229007633588,0.00634765625,3.971923828125,1.0625
1755889725102342,498.4961832061069,498.6412213740458,500.2671755725191,0.111572265625,3.990234375,1.068359375
1755889725107086,498.9770992366412,498.4351145038168,499.7175572519084,0.013671875,3.989990234375,1.08251953125
1755889725111253,498.91603053435114,498.3206106870229,0.6641221374045801,0.068603515625,3.94873046875,1.07275390625
1755889725116253,498.7022900763359,498.5419847328244,499.618320610687,0.069091796875,0.01318359375,1.080810546875
1755889725121259,498.90076335877865,498.29007633587787,0.8244274809160306,0.0400390625,3.953369140625,1.0810546875
1755889725126305,498.59541984732823,498.8167938931298,500.08396946564886,0.117431640625,3.995849609375,1.064453125
1755889725131319,499.1297709923664,498.22137404580155,0.33587786259541985,0.00830078125,3.971923828125,1.076171875
1755889725136336,498.5419847328244,498.6412213740458,0.09923664122137404,0.109619140625,3.99072265625,1.070556640625
1755889725141314,499.0610687022901,498.67175572519085,499.80916030534354,0.047607421875,3.998291015625,1.065185546875
1755889725146263,498.69465648854964,498.42748091603056,0.816793893129771,0.072265625,3.95361328125,1.06982421875
1755889725151275,498.6412213740458,498.4961832061069,499.64885496183206,0.06494140625,0.01416015625,1.08203125
1755889725156470,498.99236641221376,498.1374045801527,1.1068702290076335,0.044677734375,3.947265625,1.078125
1755889725161329,498.37404580152673,498.85496183206106,500.0458015267176,0.093505859375,0.01318359375,1.083251953125
1755889725166389,499.1374045801527,498.3206106870229,0.4122137404580153,0.03173828125,3.955322265625,1.059814453125
1755889725171417,498.42748091603056,498.7251908396947,0.06870229007633588,0.108154296875,3.9892578125,1.0732421875
1755889725176351,499.0229007633588,498.40458015267177,500.206106870229,0.01025390625,3.987060546875,1.0830078125
1755889725181248,498.7175572519084,498.3587786259542,0.9236641221374046,0.105712890625,3.9609375,1.078369140625
1755889725186302,498.8854961832061,498.6564885496183,499.90076335877865,0.052490234375,0.001953125,1.0546875
1755889725191507,498.8854961832061,498.2290076335878,0.8931297709923665,0.03271484375,3.947998046875,1.079833984375
1755889725196389,498.51908396946567,498.7557251908397,499.90076335877865,0.098388671875,0.014404296875,1.087646484375
1755889725201378,499.1374045801527,498.31297709923666,0.7022900763358778,0.027099609375,3.958251953125,1.069091796875
1755889725207280,498.5496183206107,498.63358778625957,499.62595419847327,0.12109375,0.005126953125,1.074951171875
1755889725211475,499.25954198473283,498.25954198473283,500.0763358778626,0.016357421875,3.9873046875,1.075439453125
1755889725216327,498.6641221374046,498.58015267175574,0.8320610687022901,0.10791015625,3.967529296875,1.080322265625
1755889725221302,498.96946564885496,498.58015267175574,499.67175572519085,0.0615234375,0.00390625,1.061767578125
1755889725226261,498.91603053435114,498.2977099236641,0.9694656488549618,0.03759765625,3.943359375,1.0908203125
1755889725231455,498.69465648854964,498.44274809160305,499.58015267175574,0.059326171875,0.01318359375,1.086669921875
1755889725236366,499.03053435114504,498.51145038167937,0.8091603053435115,0.025390625,3.9619140625,1.055908203125
1755889725241360,498.3893129770992,498.74045801526717,499.8854961832061,0.1171875,0.000244140625,1.078369140625
1755889725247675,498.9465648854962,498.36641221374043,0.7633587786259542,0.033447265625,3.957763671875,1.082275390625
1755889725251352,498.57251908396944,498.618320610687,0.5801526717557252,0.096435546875,3.9765625,1.090087890625
1755889725256290,499.1832061068702,498.7480916030534,499.90076335877865,0.03466796875,3.99267578125,1.073486328125
1755889725261253,498.7480916030534,498.3587786259542,0.916030534351145,0.084228515625,3.948486328125,1.075927734375
1755889725266259,498.6106870229008,498.60305343511453,499.793893129771,0.06005859375,0.015625,1.07568359375
1755889725271404,499.0458015267176,498.206106870229,0.9923664122137404,0.03857421875,3.953125,1.08154296875
1755889725276312,498.381679389313,498.89312977099235,499.9312977099237,0.119873046875,0.002685546875,1.072998046875
1755889725281301,499.09923664122135,498.1526717557252,0.17557251908396945,0.0087890625,3.962158203125,1.061279296875
1755889725287666,498.48854961832063,498.8167938931298,0.007633587786259542,0.11083984375,3.990966796875,1.073486328125
1755889725291877,499.31297709923666,498.30534351145036,0.061068702290076333,0.008056640625,3.9775390625,1.07958984375
1755889725296288,498.53435114503816,498.78625954198475,1.2290076335877862,0.082275390625,3.9482421875,1.065185546875
1755889725301271,498.7175572519084,498.6641221374046,499.8167938931298,0.0615234375,0.01123046875,1.083251953125
1755889725306275,499.2290076335878,498.2824427480916,1.1755725190839694,0.028564453125,3.94775390625,1.09228515625
1755889725311532,498.587786259542,498.87786259541986,500.03053435114504,0.084716796875,0.013671875,1.08740234375
1755889725316340,499.10687022900765,498.2671755725191,0.4732824427480916,0.011474609375,3.969970703125,1.064453125
1755889725321313,498.51145038167937,498.64885496183206,0.13740458015267176,0.091552734375,3.97802734375,1.094970703125
1755889725326623,499.0229007633588,498.1145038167939,0.10687022900763359,0.00341796875,3.984130859375,1.071044921875
1755889725331319,498.58015267175574,498.64885496183206,0.916030534351145,0.103515625,3.96826171875,1.089599609375
1755889725336355,498.77862595419845,498.7251908396947,499.48854961832063,0.054931640625,3.999267578125,1.065185546875
1755889725341253,498.8854961832061,498.1526717557252,1.083969465648855,0.04931640625,3.94775390625,1.07080078125
1755889725346253,498.51908396946567,498.8396946564886,499.89312977099235,0.078857421875,0.018798828125,1.085205078125
1755889725351530,499.10687022900765,498.37404580152673,0.6259541984732825,0.03173828125,3.958251953125,1.06005859375
1755889725356397,498.3435114503817,498.8625954198473,0.015267175572519083,0.1103515625,3.99072265625,1.077392578125
1755889725361298,499.0381679389313,498.0610687022901,499.9312977099237,0.008056640625,3.98388671875,1.079345703125
1755889725367107,498.48854961832063,498.44274809160305,0.4198473282442748,0.0986328125,3.984375,1.080322265625
1755889725371292,498.91603053435114,498.587786259542,499.64885496183206,0.056640625,0.004150390625,1.054443359375
1755889725376295,498.9770992366412,498.31297709923666,0.9694656488549618,0.049072265625,3.9501953125,1.071044921875
1755889725381268,498.53435114503816,498.55725190839695,499.7709923664122,0.076171875,0.016357421875,1.080078125
1755889725386277,498.8167938931298,498.381679389313,1.0458015267175573,0.033447265625,3.955810546875,1.075927734375
1755889725391368,498.36641221374043,498.74045801526717,0.007633587786259542,0.104736328125,3.994873046875,1.06396484375
1755889725396385,498.96946564885496,498.206106870229,0.16793893129770993,0.019287109375,3.9619140625,1.058349609375
1755889725401412,498.46564885496184,498.4732824427481,0.5190839694656488,0.092041015625,3.983642578125,1.077392578125
1755889725406299,498.9312977099237,498.44274809160305,499.793893129771,0.026123046875,3.996337890625,1.081298828125
1755889725411271,498.6641221374046,498.68702290076334,1.1221374045801527,0.090576171875,3.954345703125,1.069580078125
1755889725416396,498.6412213740458,498.4732824427481,499.4580152671756,0.0625,0.00830078125,1.063232421875
1755889725422088,498.8167938931298,498.3206106870229,0.9847328244274809,0.0576171875,3.946533203125,1.06640625
1755889725426443,498.55725190839695,498.82442748091603,500.1679389312977,0.111572265625,0.008056640625,1.08056640625
1755889725431378,498.98473282442745,498.4580152671756,0.7557251908396947,0.0146484375,3.96240234375,1.064697265625
1755889725436420,498.618320610687,498.7709923664122,0.4961832061068702,0.098876953125,3.9814453125,1.084716796875
1755889725442287,499.0763358778626,498.08396946564886,0.2595419847328244,0.00439453125,3.971435546875,1.07568359375
1755889725446284,498.6641221374046,498.59541984732823,0.8015267175572519,0.09423828125,3.96044921875,1.0751953125
1755889725451284,499.0229007633588,498.7022900763359,499.5496183206107,0.06103515625,0.01318359375,1.0712890625
1755889725456349,499.0,498.2671755725191,1.0076335877862594,0.03515625,3.949462890625,1.084716796875
1755889725461292,498.62595419847327,498.89312977099235,499.793893129771,0.11376953125,0.0078125,1.08740234375
1755889725466306,499.12213740458014,498.48854961832063,0.45038167938931295,0.013427734375,3.9638671875,1.0625
1755889725471382,498.36641221374043,498.8854961832061,500.1374045801527,0.102294921875,3.98388671875,1.07275390625
1755889725477236,499.00763358778624,498.2442748091603,0.2748091603053435,0.001708984375,3.96728515625,1.07421875
1755889725481440,498.6106870229008,498.7022900763359,0.6106870229007634,0.103759765625,3.97265625,1.091064453125
1755889725486311,498.80916030534354,498.5496183206107,499.69465648854964,0.04638671875,0.00244140625,1.063720703125
1755889725491303,499.01526717557255,498.17557251908397,0.9236641221374046,0.0654296875,3.94677734375,1.06884765625
1755889725496292,498.70992366412213,498.7175572519084,499.7709923664122,0.072265625,0.012939453125,1.09033203125
1755889725501278,499.22137404580155,498.3358778625954,0.7709923664122137,0.035888671875,3.9599609375,1.0771484375
1755889725506368,498.53435114503816,498.7480916030534,500.2442748091603,0.114013671875,3.994873046875,1.06201171875
1755889725511290,499.1297709923664,498.206106870229,0.33587786259541985,0.003173828125,3.975830078125,1.072509765625
1755889725516582,498.6106870229008,498.587786259542,0.6106870229007634,0.10009765625,3.974365234375,1.099609375
1755889725521325,498.82442748091603,498.67175572519085,500.1526717557252,0.04736328125,0.006103515625,1.060302734375
1755889725526320,498.7251908396947,498.4580152671756,0.8473282442748091,0.062744140625,3.944580078125,1.068359375
1755889725531331,498.64885496183206,498.58015267175574,499.8396946564886,0.063720703125,0.0146484375,1.0830078125
1755889725536294,499.2442748091603,498.25954198473283,1.0916030534351144,0.034912109375,3.957275390625,1.086181640625
1755889725541498,498.41984732824426,498.6641221374046,499.9465648854962,0.115234375,3.98828125,1.061279296875
1755889725546722,499.2442748091603,498.31297709923666,0.5877862595419847,0.030029296875,3.954345703125,1.058349609375
1755889725551582,498.69465648854964,498.8167938931298,500.2671755725191,0.105224609375,3.9853515625,1.07666015625
1755889725556325,499.0610687022901,498.3587786259542,499.9770992366412,0.05078125,0.001953125,1.077880859375
1755889725561343,498.69465648854964,498.58015267175574,1.0229007633587786,0.10302734375,3.962158203125,1.0751953125
1755889725566296,498.7175572519084,498.4961832061069,499.8167938931298,0.055419921875,0.004150390625,1.0634765625
1755889725571342,498.82442748091603,498.23664122137404,0.7251908396946565,0.037109375,3.94970703125,1.08349609375
1755889725576386,498.4732824427481,498.8396946564886,499.67175572519085,0.095703125,0.00732421875,1.08349609375
1755889725581283,498.8396946564886,498.12213740458014,0.2824427480916031,0.025634765625,3.961181640625,1.0654296875
1755889725586390,498.40458015267177,498.78625954198475,0.13740458015267176,0.104248046875,3.9873046875,1.08349609375
1755889725591357,499.10687022900765,498.3435114503817,500.1603053435114,0.016845703125,3.997802734375,1.080078125
1755889725596408,498.58015267175574,498.41984732824426,0.7480916030534351,0.10302734375,3.957275390625,1.08203125
1755889725601282,498.6793893129771,498.4732824427481,499.7328244274809,0.0556640625,0.00634765625,1.06201171875
1755889725606277,498.9465648854962,498.19083969465646,0.9694656488549618,0.043701171875,3.9482421875,1.07763671875
1755889725611339,498.6641221374046,498.77862595419845,499.7709923664122,0.09912109375,0.01416015625,1.084716796875
1755889725616318,499.1374045801527,498.23664122137404,0.6183206106870229,0.02685546875,3.95751953125,1.06298828125
1755889725621327,498.5419847328244,499.0,0.11450381679389313,0.09912109375,3.984130859375,1.06787109375
1755889725628688,498.9770992366412,498.22137404580155,1.0305343511450382,0.029296875,3.952880859375,1.083251953125
1755889725633353,498.5267175572519,498.8396946564886,500.1374045801527,0.111083984375,0.00927734375,1.0771484375
1755889725636286,498.7022900763359,498.587786259542,499.8854961832061,0.05322265625,0.00439453125,1.060791015625
1755889725641274,498.80152671755724,498.17557251908397,0.8778625954198473,0.076904296875,3.951904296875,1.05615234375
1755889725646267,498.53435114503816,498.7557251908397,499.82442748091603,0.06298828125,0.012451171875,1.08447265625
1755889725651322,499.1297709923664,498.2519083969466,1.0916030534351144,0.03564453125,3.947509765625,1.081298828125
1755889725656400,498.42748091603056,498.8702290076336,500.0458015267176,0.11865234375,3.996826171875,1.069091796875
1755889725661337,499.2442748091603,498.01526717557255,0.2748091603053435,0.00634765625,3.96630859375,1.067626953125
1755889725667937,498.3435114503817,498.87786259541986,0.05343511450381679,0.10986328125,0.003173828125,1.0791015625
1755889725671385,498.98473282442745,498.2748091603053,499.8167938931298,0.044921875,0.001220703125,1.072998046875
1755889725676309,498.70992366412213,498.51145038167937,1.1221374045801527,0.084716796875,3.957275390625,1.066650390625
1755889725681350,498.7175572519084,498.5496183206107,499.68702290076334,0.0693359375,0.009033203125,1.077880859375
1755889725686303,498.96946564885496,498.09923664122135,0.9694656488549618,0.033935546875,3.952880859375,1.082275390625
1755889725691386,498.60305343511453,498.91603053435114,499.9770992366412,0.11669921875,0.00439453125,1.0693359375
1755889725696323,499.1297709923664,498.31297709923666,0.29770992366412213,0.014892578125,3.969482421875,1.074951171875
1755889725702348,498.51145038167937,498.9083969465649,500.206106870229,0.112548828125,3.989990234375,1.063720703125
1755889725706305,499.09923664122135,498.39694656488547,500.17557251908397,0.03955078125,3.99560546875,1.0751953125
1755889725711266,498.5419847328244,498.5648854961832,1.0381679389312977,0.07421875,3.950439453125,1.0693359375
1755889725716299,498.9236641221374,498.5267175572519,499.55725190839695,0.060546875,0.015380859375,1.080810546875
1755889725721476,499.00763358778624,498.14503816793894,1.0381679389312977,0.044921875,3.94970703125,1.07861328125
1755889725726388,498.7175572519084,498.8167938931298,499.6641221374046,0.083251953125,0.015380859375,1.091064453125
1755889725731308,499.1374045801527,498.29007633587787,0.8396946564885496,0.032958984375,3.953857421875,1.06689453125
1755889725736642,498.25954198473283,498.8625954198473,0.03816793893129771,0.1103515625,3.995361328125,1.07275390625
1755889725741370,499.1603053435114,498.3206106870229,500.14503816793894,0.010498046875,3.982421875,1.079345703125
1755889725746322,498.57251908396944,498.6106870229008,1.0229007633587786,0.10693359375,3.968505859375,1.08447265625
1755889725751270,498.64885496183206,498.618320610687,499.63358778625957,0.047607421875,3.997802734375,1.058837890625
1755889725756553,498.80152671755724,498.31297709923666,0.8320610687022901,0.042724609375,3.945068359375,1.07177734375
1755889725761285,498.48091603053433,498.57251908396944,500.0763358778626,0.087158203125,0.0166015625,1.07470703125
1755889725766334,499.3206106870229,498.206106870229,0.9007633587786259,0.0400390625,3.95458984375,1.063232421875
1755889725774356,498.76335877862596,498.46564885496184,499.59541984732823,0.05712890625,0.001953125,1.04541015625
1755889725776829,498.9770992366412,498.3206106870229,0.25190839694656486,0.02099609375,3.965576171875,1.05810546875
1755889725781294,498.4351145038168,498.5267175572519,0.5801526717557252,0.104248046875,3.968994140625,1.08447265625
1755889725786333,498.8854961832061,498.64885496183206,499.91603053435114,0.0546875,0.003662109375,1.072021484375
1755889725791720,498.7328244274809,498.618320610687,0.9236641221374046,0.1005859375,3.9541015625,1.0732421875
1755889725796415,498.9312977099237,498.4732824427481,499.60305343511453,0.0615234375,0.0107421875,1.069580078125
1755889725801351,499.1297709923664,498.3206106870229,0.816793893129771,0.0322265625,3.953369140625,1.086181640625
1755889725806456,498.587786259542,498.6793893129771,500.1526717557252,0.111083984375,0.00830078125,1.074462890625
1755889725811286,499.0763358778626,498.2671755725191,0.40458015267175573,0.015869140625,3.966064453125,1.060546875
1755889725816341,498.6641221374046,498.587786259542,0.5648854961832062,0.091796875,3.984130859375,1.073486328125
1755889725821287,499.0229007633588,498.51145038167937,500.00763358778624,0.030517578125,3.99267578125,1.08203125
1755889725826296,498.4503816793893,498.7709923664122,0.9236641221374046,0.092041015625,3.9609375,1.073974609375
1755889725831331,498.74045801526717,498.5648854961832,499.58015267175574,0.058837890625,0.01611328125,1.066650390625
1755889725836459,498.90076335877865,498.23664122137404,1.1374045801526718,0.060791015625,3.9462890625,1.067138671875
1755889725844594,498.96946564885496,498.381679389313,500.0610687022901,0.038818359375,3.99365234375,1.080078125
1755889725846741,499.0458015267176,498.31297709923666,0.7480916030534351,0.035888671875,3.951416015625,1.0751953125
1755889725851281,498.59541984732823,498.62595419847327,0.3816793893129771,0.10595703125,3.972900390625,1.085693359375
1755889725856319,499.1603053435114,498.3587786259542,500.2671755725191,0.02685546875,3.997314453125,1.0908203125
1755889725861502,498.60305343511453,498.6106870229008,0.9465648854961832,0.101318359375,3.97119140625,1.083984375
1755889725866385,498.78625954198475,498.6412213740458,499.5496183206107,0.05712890625,0.012939453125,1.063232421875
1755889725871538,498.77862595419845,498.35114503816794,1.2061068702290076,0.05810546875,3.94482421875,1.079345703125
1755889725876436,498.48091603053433,498.76335877862596,499.76335877862596,0.069580078125,0.009521484375,1.083251953125
1755889725881288,499.19083969465646,498.30534351145036,0.9007633587786259,0.03125,3.95068359375,1.072998046875
1755889725886386,498.5038167938931,498.7175572519084,0.11450381679389313,0.112060546875,3.99462890625,1.071044921875
1755889725891363,499.08396946564886,498.1526717557252,0.04580152671755725,0.00390625,3.97412109375,1.06640625
1755889725896591,498.51908396946567,498.4961832061069,0.7557251908396947,0.103759765625,3.97021484375,1.080810546875
1755889725901374,498.9465648854962,498.4961832061069,499.90076335877865,0.0546875,0.003173828125,1.065185546875
1755889725906358,498.85496183206106,498.37404580152673,0.7709923664122137,0.0595703125,3.950927734375,1.069091796875
1755889725911329,498.6412213740458,498.48091603053433,499.6564885496183,0.065673828125,0.0126953125,1.086669921875
1755889725916803,499.1526717557252,498.1374045801527,0.7480916030534351,0.0322265625,3.949462890625,1.08203125
1755889725921320,498.32824427480915,498.8854961832061,500.03053435114504,0.1123046875,3.991943359375,1.058837890625
1755889725926286,499.0381679389313,498.1526717557252,500.19847328244276,0.00634765625,3.977294921875,1.07666015625
1755889725931277,498.44274809160305,498.7480916030534,0.5572519083969466,0.102783203125,3.9775390625,1.088623046875
1755889725937001,499.206106870229,498.25954198473283,500.1832061068702,0.023681640625,3.98876953125,1.088623046875
1755889725941379,498.74045801526717,498.7251908396947,0.6183206106870229,0.106689453125,3.961181640625,1.0732421875
1755889725946326,498.6793893129771,498.6412213740458,499.29007633587787,0.069580078125,0.01220703125,1.089599609375
1755889725951575,499.0381679389313,498.31297709923666,0.9236641221374046,0.034423828125,3.952880859375,1.0810546875
1755889725956776,498.48854961832063,498.7175572519084,500.03053435114504,0.103759765625,0.006591796875,1.08154296875
1755889725961283,499.03053435114504,498.30534351145036,0.32061068702290074,0.025146484375,3.962158203125,1.05712890625
1755889725966289,498.77862595419845,498.6412213740458,0.45038167938931295,0.107421875,3.990234375,1.08154296875
1755889725971280,499.09923664122135,498.30534351145036,499.9618320610687,0.015869140625,3.985595703125,1.08154296875
1755889725976325,498.5419847328244,498.4503816793893,1.0229007633587786,0.098388671875,3.96484375,1.0751953125
1755889725981366,498.80916030534354,498.53435114503816,499.8167938931298,0.05712890625,0.008056640625,1.064453125
1755889725986365,499.0916030534351,498.2442748091603,1.1221374045801527,0.029296875,3.952392578125,1.08056640625
1755889725991845,498.67175572519085,498.51145038167937,499.7480916030534,0.06005859375,0.014404296875,1.087890625
1755889725996905,499.23664122137404,498.2748091603053,0.8091603053435115,0.034912109375,3.951904296875,1.08251953125
1755889726001283,498.32824427480915,498.8320610687023,0.24427480916030533,0.10546875,3.9853515625,1.07177734375
1755889726006296,499.09923664122135,498.25954198473283,0.25190839694656486,0.01513671875,3.989990234375,1.07763671875
1755889726011275,498.77862595419845,498.63358778625957,1.0076335877862594,0.1025390625,3.9638671875,1.083251953125
1755889726016467,499.08396946564886,498.51145038167937,499.64885496183206,0.058837890625,0.005615234375,1.067138671875
1755889726021348,498.74045801526717,498.2748091603053,1.1984732824427482,0.03466796875,3.947021484375,1.087890625
1755889726026414,498.6106870229008,498.587786259542,499.59541984732823,0.064208984375,0.015380859375,1.074951171875
1755889726032008,498.8702290076336,498.2290076335878,0.8396946564885496,0.03515625,3.954833984375,1.0869140625
1755889726037182,498.41984732824426,498.85496183206106,499.8473282442748,0.1171875,0.0048828125,1.072265625
1755889726041282,498.96946564885496,498.19847328244276,0.11450381679389313,0.01416015625,3.9677734375,1.055419921875
1755889726046272,498.5267175572519,498.41984732824426,0.4961832061068702,0.097900390625,3.97998046875,1.078857421875
1755889726051276,498.9541984732824,498.48854961832063,500.1297709923664,0.03759765625,3.997802734375,1.075439453125
1755889726056354,498.96946564885496,498.6106870229008,0.8702290076335878,0.083740234375,3.946044921875,1.065673828125
1755889726061294,499.0458015267176,498.618320610687,499.87786259541986,0.0615234375,0.017822265625,1.079833984375
1755889726066343,499.0534351145038,498.2671755725191,1.2061068702290076,0.03857421875,3.9541015625,1.081787109375
1755889726071312,498.64885496183206,498.59541984732823,499.98473282442745,0.12255859375,0.005859375,1.07080078125
1755889726076344,498.87786259541986,498.23664122137404,0.8778625954198473,0.012939453125,3.970947265625,1.05908203125
1755889726081278,498.4961832061069,498.58015267175574,0.5190839694656488,0.0947265625,3.9755859375,1.08984375
1755889726086296,499.00763358778624,498.67175572519085,500.0,0.038818359375,3.99755859375,1.068359375
1755889726091503,498.5496183206107,498.77862595419845,0.9083969465648855,0.102294921875,3.967529296875,1.09716796875
1755889726096426,498.8473282442748,498.62595419847327,499.74045801526717,0.0517578125,0.00341796875,1.055908203125
1755889726101387,499.01526717557255,498.2519083969466,1.297709923664122,0.034423828125,3.9541015625,1.080078125
1755889726106693,498.58015267175574,498.63358778625957,499.7709923664122,0.086669921875,0.01513671875,1.081298828125
1755889726111337,499.09923664122135,498.31297709923666,0.3816793893129771,0.0322265625,3.9599609375,1.07275390625
1755889726116334,498.55725190839695,498.6106870229008,0.13740458015267176,0.110595703125,3.9921875,1.055419921875
1755889726121307,499.12213740458014,498.36641221374043,500.2671755725191,0.004638671875,3.988037109375,1.073974609375
1755889726126438,498.8167938931298,498.4580152671756,0.6030534351145038,0.1083984375,3.972412109375,1.08642578125
1755889726131370,498.78625954198475,498.58015267175574,499.68702290076334,0.05126953125,0.0029296875,1.06494140625
1755889726136418,498.77862595419845,498.2748091603053,1.0763358778625953,0.04833984375,3.945068359375,1.078857421875
1755889726141497,498.7175572519084,498.793893129771,499.67175572519085,0.0830078125,0.009521484375,1.081787109375
1755889726146483,498.9618320610687,498.2442748091603,0.7404580152671756,0.034423828125,3.95703125,1.06787109375
1755889726151315,498.40458015267177,498.6106870229008,500.03053435114504,0.107177734375,3.99365234375,1.062255859375
1755889726156351,499.1603053435114,498.31297709923666,0.04580152671755725,0.0029296875,3.984375,1.080322265625
1755889726161291,498.40458015267177,498.5648854961832,0.5954198473282443,0.10791015625,3.968017578125,1.086181640625
1755889726166288,498.9541984732824,498.41984732824426,499.8167938931298,0.052490234375,0.00048828125,1.06884765625
1755889726171354,498.6564885496183,498.58015267175574,0.816793893129771,0.048095703125,3.943603515625,1.06396484375
1755889726176338,498.69465648854964,498.7022900763359,499.35114503816794,0.078125,0.015380859375,1.0849609375
1755889726181399,499.0229007633588,498.10687022900765,0.8549618320610687,0.0361328125,3.952880859375,1.077392578125
1755889726186316,498.48091603053433,498.89312977099235,500.1526717557252,0.11572265625,3.996337890625,1.064697265625
1755889726191305,499.01526717557255,498.2671755725191,500.22137404580155,0.021484375,3.962158203125,1.056640625
1755889726196296,498.6412213740458,498.5267175572519,0.5038167938931297,0.095458984375,3.9814453125,1.087646484375
1755889726201566,499.0687022900763,498.39694656488547,500.08396946564886,0.018798828125,3.9892578125,1.0771484375
1755889726206344,498.58015267175574,498.7251908396947,1.0687022900763359,0.098388671875,3.962158203125,1.061767578125
1755889726211440,498.5648854961832,498.5419847328244,499.70992366412213,0.05859375,0.007080078125,1.056640625
1755889726216418,498.8320610687023,497.98473282442745,1.4122137404580153,0.038330078125,3.953857421875,1.082763671875
1755889726221345,498.5648854961832,498.6412213740458,500.0687022900763,0.109375,0.007568359375,1.083251953125
1755889726226305,499.1679389312977,498.0381679389313,0.2748091603053435,0.020263671875,3.960693359375,1.06103515625
1755889726231297,498.3206106870229,498.69465648854964,0.45038167938931295,0.09912109375,3.981201171875,1.073974609375
1755889726236374,499.0610687022901,498.381679389313,500.0229007633588,0.01904296875,3.994140625,1.0791015625
1755889726241322,498.57251908396944,498.7175572519084,0.9312977099236641,0.096923828125,3.958251953125,1.080322265625
1755889726246369,498.9541984732824,498.63358778625957,499.70992366412213,0.056884765625,0.005126953125,1.0732421875
1755889726251311,498.64885496183206,498.59541984732823,0.8015267175572519,0.033935546875,3.94775390625,1.079833984375
1755889726256453,498.4961832061069,498.5419847328244,499.8320610687023,0.06787109375,0.006591796875,1.0869140625
1755889726261299,498.87786259541986,498.32824427480915,0.6641221374045801,0.02734375,3.964111328125,1.05908203125
1755889726266292,498.2977099236641,498.7328244274809,0.20610687022900764,0.104248046875,3.981689453125,1.08642578125
1755889726271299,499.0381679389313,498.2824427480916,0.05343511450381679,0.0185546875,3.9951171875,1.082275390625
1755889726276357,498.74045801526717,498.5496183206107,0.5419847328244275,0.095947265625,3.978759765625,1.091796875
1755889726281321,498.9389312977099,498.59541984732823,499.67175572519085,0.0361328125,3.993408203125,1.073974609375
1755889726286394,498.7480916030534,498.3587786259542,0.8625954198473282,0.07177734375,3.949951171875,1.057861328125
1755889726293199,498.96946564885496,498.3206106870229,499.77862595419845,0.030029296875,3.99365234375,1.079345703125
1755889726296477,498.85496183206106,498.2290076335878,0.8625954198473282,0.038330078125,3.945556640625,1.0830078125
1755889726301297,498.31297709923666,498.6564885496183,500.1297709923664,0.122802734375,0.00146484375,1.071533203125
1755889726306311,499.23664122137404,498.1603053435114,0.15267175572519084,0.0078125,3.971435546875,1.0625
1755889726311280,498.5267175572519,498.59541984732823,0.4961832061068702,0.097412109375,3.97900390625,1.085693359375
1755889726316383,499.206106870229,498.60305343511453,500.0534351145038,0.041259765625,0.00048828125,1.08056640625
1755889726321315,498.96946564885496,498.48854961832063,0.9312977099236641,0.077880859375,3.955810546875,1.072509765625
1755889726326335,498.7328244274809,498.44274809160305,499.8167938931298,0.062255859375,0.01318359375,1.082275390625
1755889726331761,498.8625954198473,498.3587786259542,1.183206106870229,0.05078125,3.95166015625,1.07470703125
1755889726336367,498.4961832061069,498.85496183206106,500.10687022900765,0.114990234375,0.001220703125,1.067626953125
1755889726341290,499.1832061068702,498.206106870229,0.33587786259541985,0.005126953125,3.968505859375,1.066650390625
1755889726346281,498.5648854961832,498.67175572519085,0.3282442748091603,0.0947265625,3.97412109375,1.087158203125
1755889726351293,499.0610687022901,498.09923664122135,500.1679389312977,0.04345703125,0.001953125,1.07080078125
1755889726356513,498.55725190839695,498.4732824427481,0.5725190839694656,0.10693359375,3.96923828125,1.081787109375
1755889726361418,498.91603053435114,498.44274809160305,499.7709923664122,0.0556640625,0.0029296875,1.06689453125
1755889726368400,498.58015267175574,498.5648854961832,0.7786259541984732,0.104248046875,3.9755859375,1.09033203125
1755889726371296,498.62595419847327,498.9770992366412,499.8854961832061,0.092041015625,0.01611328125,1.07958984375
1755889726376341,499.0229007633588,498.3893129770992,0.5801526717557252,0.034912109375,3.9560546875,1.06787109375
1755889726381276,498.3358778625954,498.90076335877865,500.2442748091603,0.11328125,3.983154296875,1.072021484375
1755889726386626,499.03053435114504,498.3435114503817,500.1603053435114,0.010009765625,3.984130859375,1.0732421875
1755889726391436,498.55725190839695,498.48091603053433,0.7557251908396947,0.100341796875,3.968994140625,1.084716796875
1755889726396428,498.85496183206106,498.64885496183206,499.51908396946567,0.056884765625,0.004150390625,1.056396484375
1755889726401377,498.7557251908397,498.41984732824426,0.5572519083969466,0.047607421875,3.944580078125,1.0732421875
1755889726406427,498.67175572519085,498.6412213740458,499.51908396946567,0.09375,0.0126953125,1.08349609375
1755889726411293,499.0458015267176,498.3893129770992,0.8549618320610687,0.033935546875,3.95458984375,1.066162109375
1755889726416299,498.41984732824426,498.9083969465649,500.23664122137404,0.10693359375,3.986328125,1.073974609375
1755889726421316,499.09923664122135,498.21374045801525,500.2519083969466,0.00439453125,3.985107421875,1.08251953125
1755889726426306,498.55725190839695,498.44274809160305,0.816793893129771,0.10400390625,3.9638671875,1.086181640625
1755889726431296,498.85496183206106,498.4503816793893,499.9236641221374,0.0517578125,3.99755859375,1.057861328125
1755889726436305,498.7709923664122,498.37404580152673,0.8778625954198473,0.095947265625,3.9560546875,1.05859375
1755889726441297,498.8854961832061,498.70992366412213,499.7557251908397,0.061767578125,0.009033203125,1.06982421875
1755889726446408,499.0,498.19847328244276,0.916030534351145,0.029052734375,3.951416015625,1.091552734375
1755889726451355,498.32824427480915,499.03053435114504,500.1145038167939,0.1103515625,3.99853515625,1.07275390625
1755889726456470,499.0916030534351,498.51908396946567,0.5114503816793893,0.023193359375,3.960205078125,1.05712890625
1755889726461346,498.4732824427481,498.70992366412213,0.3893129770992366,0.09033203125,3.979248046875,1.07861328125
1755889726466288,499.00763358778624,498.4732824427481,499.80916030534354,0.028564453125,3.99560546875,1.08203125
1755889726471303,498.7022900763359,498.67175572519085,0.9694656488549618,0.083251953125,3.953369140625,1.072998046875
1755889726476994,498.9541984732824,498.67175572519085,500.19847328244276,0.0458984375,0.002197265625,1.075439453125
1755889726481435,498.9618320610687,498.03053435114504,1.534351145038168,0.03759765625,3.9501953125,1.080810546875
1755889726486373,498.85496183206106,498.62595419847327,500.19083969465646,0.111572265625,0.00927734375,1.083740234375
1755889726491340,499.2519083969466,498.3435114503817,0.33587786259541985,0.02587890625,3.959716796875,1.0595703125
1755889726496490,498.32824427480915,499.0534351145038,500.1603053435114,0.1142578125,3.9951171875,1.0595703125
1755889726501419,498.9083969465649,498.44274809160305,500.1526717557252,0.0283203125,3.998291015625,1.079345703125
1755889726506305,498.60305343511453,498.7480916030534,0.7709923664122137,0.09521484375,3.958740234375,1.07470703125
1755889726511289,498.7557251908397,498.8396946564886,499.77862595419845,0.059326171875,0.015869140625,1.072998046875
1755889726516487,498.9312977099237,498.19083969465646,0.9007633587786259,0.06591796875,3.946044921875,1.065185546875
1755889726521338,498.5648854961832,498.60305343511453,499.7022900763359,0.06787109375,0.01416015625,1.092529296875
1755889726526363,499.206106870229,498.22137404580155,0.8015267175572519,0.036865234375,3.955322265625,1.080810546875
1755889726531341,498.412213740458,498.70992366412213,499.99236641221376,0.1201171875,3.993896484375,1.071533203125
1755889726536866,499.0610687022901,498.2519083969466,0.16030534351145037,0.002685546875,3.972412109375,1.0595703125
1755889726541294,498.6106870229008,498.4503816793893,0.6564885496183206,0.09716796875,3.97607421875,1.09423828125
1755889726546291,498.89312977099235,498.3893129770992,499.80916030534354,0.054931640625,3.999267578125,1.0703125
1755889726551313,498.8396946564886,498.3435114503817,1.0458015267175573,0.066650390625,3.94677734375,1.064208984375
1755889726556459,498.7480916030534,498.6412213740458,499.77862595419845,0.07275390625,0.01513671875,1.085205078125
1755889726561338,499.0687022900763,498.19083969465646,0.8549618320610687,0.0439453125,3.955078125,1.07666015625
1755889726566388,498.44274809160305,499.0610687022901,500.08396946564886,0.11669921875,3.990966796875,1.070556640625
1755889726571331,499.31297709923666,498.2290076335878,0.35877862595419846,0.0048828125,3.9765625,1.0673828125
1755889726577513,498.5267175572519,498.9618320610687,500.2442748091603,0.11474609375,0.00048828125,1.0703125
1755889726581294,498.9465648854962,498.63358778625957,499.8702290076336,0.042236328125,3.994873046875,1.069580078125
1755889726586413,498.8167938931298,498.64885496183206,1.0,0.100341796875,3.966552734375,1.0810546875
1755889726591296,499.0763358778626,498.67175572519085,499.68702290076334,0.061279296875,3.9970703125,1.08447265625
1755889726596292,498.9312977099237,498.3358778625954,0.9847328244274809,0.0537109375,3.955322265625,1.097412109375
1755889726601493,498.67175572519085,498.67175572519085,500.0229007633588,0.089599609375,3.99609375,1.0927734375
1755889726606413,499.206106870229,498.587786259542,0.5801526717557252,0.0380859375,3.961181640625,1.07080078125
1755889726611325,498.618320610687,498.91603053435114,0.030534351145038167,0.103759765625,3.97607421875,1.076904296875
1755889726616709,499.0916030534351,498.29007633587787,500.2290076335878,0.0048828125,3.990966796875,1.077392578125
1755889726621446,498.90076335877865,498.67175572519085,0.9923664122137404,0.106689453125,3.962890625,1.0830078125
1755889726626294,498.9083969465649,498.206106870229,499.5419847328244,0.057373046875,0.004150390625,1.070556640625
1755889726631292,498.77862595419845,498.19847328244276,0.9083969465648855,0.04248046875,3.94482421875,1.08154296875
1755889726636344,498.67175572519085,498.60305343511453,499.9618320610687,0.092529296875,0.0078125,1.075927734375
1755889726641437,498.91603053435114,498.2748091603053,0.7251908396946565,0.029296875,3.9560546875,1.064208984375
1755889726646431,498.41984732824426,498.7175572519084,500.14503816793894,0.09521484375,3.98779296875,1.067138671875
1755889726651395,499.2290076335878,498.3893129770992,0.15267175572519084,0.010986328125,3.984619140625,1.0849609375
1755889726657970,498.4961832061069,498.80916030534354,0.2824427480916031,0.114501953125,3.998291015625,1.06640625
1755889726661310,498.6641221374046,498.46564885496184,499.6793893129771,0.05322265625,0.002197265625,1.064697265625
1755889726666301,498.9618320610687,498.31297709923666,0.9694656488549618,0.052001953125,3.94775390625,1.0810546875
1755889726671340,498.42748091603056,498.793893129771,499.8473282442748,0.0625,0.009521484375,1.0732421875
1755889726676303,499.09923664122135,498.37404580152673,0.9770992366412213,0.031494140625,3.958251953125,1.089599609375
1755889726681622,498.39694656488547,498.91603053435114,500.19083969465646,0.1162109375,0.000732421875,1.070556640625
1755889726686353,498.96946564885496,498.381679389313,0.2824427480916031,0.012451171875,3.961181640625,1.05029296875
1755889726691426,498.58015267175574,498.3893129770992,0.0916030534351145,0.0966796875,3.9833984375,1.0791015625
1755889726697077,499.1679389312977,498.25954198473283,0.04580152671755725,0.006591796875,3.978271484375,1.072265625
1755889726702244,498.6106870229008,498.58015267175574,0.7480916030534351,0.09912109375,3.96826171875,1.086669921875
1755889726706539,498.7709923664122,498.6641221374046,499.57251908396944,0.065673828125,0.0048828125,1.06982421875
1755889726711289,499.01526717557255,498.35114503816794,0.9083969465648855,0.0400390625,3.9501953125,1.084228515625
1755889726716335,498.51908396946567,498.85496183206106,499.87786259541986,0.110107421875,0.005615234375,1.06591796875
1755889726721387,499.01526717557255,498.31297709923666,0.1984732824427481,0.018798828125,3.96337890625,1.06591796875
1755889726726445,498.4961832061069,498.6564885496183,0.022900763358778626,0.095458984375,3.986328125,1.082763671875
1755889726731391,499.1526717557252,498.1297709923664,499.9236641221374,0.024658203125,3.994873046875,1.072265625
1755889726738029,498.5419847328244,498.6793893129771,0.07633587786259542,0.103759765625,3.98974609375,1.080078125
1755889726741311,498.7557251908397,498.7557251908397,499.6564885496183,0.055419921875,0.012939453125,1.07763671875
1755889726746346,498.91603053435114,498.10687022900765,0.9312977099236641,0.03369140625,3.95263671875,1.097412109375
1755889726751304,498.46564885496184,498.85496183206106,499.9541984732824,0.112060546875,0.000732421875,1.0791015625
1755889726756469,499.22137404580155,498.17557251908397,0.6259541984732825,0.037109375,3.9580078125,1.074951171875
1755889726761391,498.55725190839695,498.6564885496183,500.0229007633588,0.111572265625,3.99462890625,1.070556640625
1755889726766405,499.0916030534351,498.0763358778626,500.14503816793894,0.005126953125,3.98388671875,1.06982421875
1755889726771384,498.63358778625957,498.6641221374046,0.648854961832061,0.100830078125,3.97265625,1.0869140625
1755889726776932,499.03053435114504,498.55725190839695,499.8396946564886,0.015380859375,3.993408203125,1.0732421875
1755889726781288,498.8320610687023,498.5038167938931,1.1374045801526718,0.056884765625,3.951171875,1.06591796875
1755889726786293,498.7251908396947,498.58015267175574,499.80916030534354,0.074462890625,0.012451171875,1.083251953125
1755889726791323,499.206106870229,498.39694656488547,0.7709923664122137,0.03857421875,3.9560546875,1.081298828125
1755889726796512,498.69465648854964,498.7022900763359,500.00763358778624,0.117919921875,3.99951171875,1.0673828125
1755889726801420,499.0381679389313,498.2290076335878,0.3053435114503817,0.005126953125,3.98046875,1.079345703125
1755889726806337,498.5496183206107,498.587786259542,0.5114503816793893,0.1044921875,3.974365234375,1.0986328125
1755889726811282,499.12213740458014,498.80916030534354,499.8625954198473,0.04296875,3.994873046875,1.070068359375
1755889726816361,498.39694656488547,498.6793893129771,1.2213740458015268,0.06298828125,3.947265625,1.06494140625
1755889726821333,498.82442748091603,498.60305343511453,499.6641221374046,0.071044921875,0.013916015625,1.080322265625
1755889726826301,498.77862595419845,498.2290076335878,0.8091603053435115,0.0302734375,3.95458984375,1.072021484375
1755889726831288,498.46564885496184,498.82442748091603,500.0229007633588,0.100830078125,0.01025390625,1.091796875
1755889726836377,499.03053435114504,498.4351145038168,0.366412213740458,0.029296875,3.9560546875,1.066650390625
1755889726841404,498.5038167938931,498.51145038167937,0.061068702290076333,0.093994140625,3.987548828125,1.092041015625
1755889726846353,498.91603053435114,498.2977099236641,500.1832061068702,0.01904296875,3.995361328125,1.080810546875
1755889726851313,498.587786259542,498.5419847328244,0.8778625954198473,0.104736328125,3.964111328125,1.078857421875
1755889726856406,498.76335877862596,498.58015267175574,499.62595419847327,0.06005859375,0.002685546875,1.063232421875
1755889726861303,499.1679389312977,498.4580152671756,0.9389312977099237,0.029541015625,3.94384765625,1.087158203125
1755889726866299,498.59541984732823,498.69465648854964,499.7480916030534,0.1025390625,0.014892578125,1.08642578125
1755889726871322,499.10687022900765,498.19847328244276,0.6030534351145038,0.025634765625,3.953369140625,1.06591796875
1755889726876398,498.2824427480916,498.76335877862596,0.08396946564885496,0.1015625,3.989990234375,1.070556640625
1755889726881310,499.3206106870229,498.19847328244276,500.17557251908397,0.013916015625,3.98291015625,1.091796875
1755889726886346,498.70992366412213,498.7328244274809,0.6412213740458015,0.10302734375,3.96240234375,1.07373046875
1755889726891359,498.85496183206106,498.60305343511453,499.8167938931298,0.049560546875,0.006103515625,1.0625
1755889726896364,498.7557251908397,498.4351145038168,1.1984732824427482,0.044921875,3.947265625,1.080810546875
1755889726901312,498.6106870229008,498.77862595419845,499.7175572519084,0.09423828125,0.014892578125,1.083984375
1755889726906312,498.9770992366412,498.3206106870229,1.2061068702290076,0.040771484375,3.9521484375,1.091064453125
1755889726911308,498.5496183206107,498.90076335877865,500.17557251908397,0.120849609375,0.0009765625,1.071044921875
1755889726916353,498.99236641221376,498.25954198473283,0.4580152671755725,0.0205078125,3.96826171875,1.06591796875
1755889726921358,498.51908396946567,498.55725190839695,0.5954198473282443,0.102783203125,3.98046875,1.076171875
1755889726926422,499.0687022900763,498.59541984732823,499.9465648854962,0.033447265625,3.998046875,1.072509765625
1755889726931373,498.85496183206106,498.3358778625954,1.0763358778625953,0.08447265625,3.957275390625,1.058837890625
1755889726936382,498.6564885496183,498.7175572519084,499.6106870229008,0.057861328125,0.008056640625,1.076904296875
1755889726941310,498.98473282442745,498.32824427480915,0.8931297709923665,0.039306640625,3.95556640625,1.0859375
1755889726946321,498.51145038167937,498.9236641221374,499.793893129771,0.11865234375,0.003662109375,1.0732421875
1755889726951376,499.1832061068702,498.0534351145038,0.183206106870229,0.013427734375,3.966064453125,1.063232421875
1755889726956395,498.59541984732823,498.67175572519085,0.2748091603053435,0.100341796875,3.978759765625,1.092041015625
1755889726961656,499.17557251908397,498.10687022900765,500.1679389312977,0.007568359375,3.97900390625,1.07861328125
1755889726966381,498.77862595419845,498.7709923664122,0.8473282442748091,0.093017578125,3.955078125,1.0625
1755889726971335,498.80916030534354,498.69465648854964,499.57251908396944,0.0654296875,0.01171875,1.082275390625
1755889726976513,499.0610687022901,498.3587786259542,0.7633587786259542,0.055908203125,3.950927734375,1.068603515625
1755889726981296,498.59541984732823,498.7709923664122,499.85496183206106,0.108642578125,3.996826171875,1.080078125
1755889726986373,498.98473282442745,498.3206106870229,0.3893129770992366,0.032470703125,3.953125,1.0732421875
1755889726991300,498.381679389313,498.7251908396947,0.13740458015267176,0.11767578125,3.990966796875,1.060302734375
1755889726996589,498.96946564885496,498.1297709923664,0.183206106870229,0.004150390625,3.975830078125,1.082763671875
1755889727001333,498.80152671755724,498.62595419847327,0.7786259541984732,0.10400390625,3.970703125,1.086181640625
1755889727006374,498.85496183206106,498.51908396946567,499.51908396946567,0.04541015625,3.99951171875,1.063720703125
1755889727011359,498.9083969465649,498.48091603053433,0.7709923664122137,0.058837890625,3.9482421875,1.071533203125
1755889727017335,498.80916030534354,498.63358778625957,499.8702290076336,0.054443359375,0.00732421875,1.063232421875
1755889727021371,499.10687022900765,498.19847328244276,1.297709923664122,0.02978515625,3.95654296875,1.07666015625
1755889727026296,498.32824427480915,498.7022900763359,500.19083969465646,0.10693359375,3.997802734375,1.060791015625
1755889727031348,499.14503816793894,498.10687022900765,0.3893129770992366,0.004150390625,3.971923828125,1.06787109375
1755889727036328,498.63358778625957,498.69465648854964,0.9083969465648855,0.102783203125,3.968994140625,1.084228515625
1755889727041466,499.1374045801527,498.206106870229,500.08396946564886,0.044677734375,3.999267578125,1.076904296875
1755889727046363,498.6106870229008,498.57251908396944,0.9694656488549618,0.05126953125,3.9482421875,1.064697265625
1755889727051342,498.89312977099235,498.48854961832063,499.68702290076334,0.068603515625,0.00927734375,1.082275390625
1755889727056432,499.1374045801527,498.2748091603053,1.0076335877862594,0.0341796875,3.9482421875,1.0791015625
1755889727061298,498.41984732824426,498.9541984732824,500.1832061068702,0.09130859375,0.004150390625,1.077880859375
1755889727066308,499.0534351145038,498.2671755725191,0.2900763358778626,0.02197265625,3.960693359375,1.067138671875
1755889727071330,498.31297709923666,498.618320610687,0.11450381679389313,0.10400390625,3.98974609375,1.0673828125
1755889727076365,499.2748091603053,498.2519083969466,499.8473282442748,0.01318359375,3.989990234375,1.0771484375
1755889727081442,498.5267175572519,498.6793893129771,0.6946564885496184,0.108642578125,3.962890625,1.0888671875
1755889727086377,498.69465648854964,498.42748091603056,499.67175572519085,0.05322265625,3.99951171875,1.060546875
1755889727091324,499.0458015267176,498.3893129770992,1.0610687022900764,0.047119140625,3.955810546875,1.0849609375
1755889727096359,498.6106870229008,498.80152671755724,499.9618320610687,0.0986328125,0.009765625,1.093994140625
1755889727101308,498.87786259541986,498.2442748091603,0.6106870229007634,0.02001953125,3.963623046875,1.0576171875
1755889727106299,498.59541984732823,498.5496183206107,0.061068702290076333,0.102783203125,3.982666015625,1.082275390625
1755889727111330,499.00763358778624,498.2977099236641,500.0687022900763,0.010498046875,3.9921875,1.076904296875
1755889727116388,498.74045801526717,498.39694656488547,0.7480916030534351,0.09716796875,3.953369140625,1.073486328125
1755889727121385,498.69465648854964,498.4961832061069,499.793893129771,0.058837890625,0.003662109375,1.0625
1755889727126382,498.793893129771,498.30534351145036,1.1755725190839694,0.042724609375,3.947265625,1.084716796875
1755889727131300,498.64885496183206,498.793893129771,499.70992366412213,0.093017578125,0.008056640625,1.077880859375
1755889727136340,499.0458015267176,498.39694656488547,1.0229007633587786,0.041748046875,3.955078125,1.092041015625
1755889727141315,498.412213740458,498.8473282442748,0.015267175572519083,0.118408203125,0.008544921875,1.0693359375
1755889727146367,499.19083969465646,497.99236641221376,0.26717557251908397,0.0126953125,3.96435546875,1.0537109375
1755889727151349,498.76335877862596,498.41984732824426,0.5267175572519084,0.097412109375,3.983642578125,1.091552734375
1755889727156317,498.8854961832061,498.4503816793893,500.0610687022901,0.02734375,3.9951171875,1.073486328125
1755889727161463,498.8320610687023,498.62595419847327,1.1526717557251909,0.091064453125,3.954833984375,1.056640625
1755889727166460,498.7480916030534,498.5267175572519,499.68702290076334,0.062744140625,0.01123046875,1.071533203125
1755889727171348,498.9541984732824,498.10687022900765,0.8244274809160306,0.03759765625,3.954345703125,1.084228515625
1755889727177802,498.9083969465649,498.7480916030534,499.74045801526717,0.079345703125,0.013671875,1.07763671875
1755889727181295,498.9541984732824,498.29007633587787,0.3282442748091603,0.011962890625,3.96044921875,1.056884765625
1755889727186300,498.618320610687,498.68702290076334,0.12213740458015267,0.10595703125,3.985595703125,1.08740234375
1755889727191394,499.23664122137404,498.2977099236641,500.08396946564886,0.03076171875,3.993408203125,1.07568359375
1755889727196354,498.60305343511453,498.4961832061069,0.9847328244274809,0.097900390625,3.953857421875,1.072021484375
1755889727201362,498.78625954198475,498.68702290076334,499.7328244274809,0.060791015625,0.00927734375,1.070556640625
1755889727206329,498.90076335877865,498.2290076335878,1.1755725190839694,0.032470703125,3.953125,1.086181640625
1755889727211377,498.63358778625957,498.6564885496183,500.206106870229,0.072509765625,0.018310546875,1.09375
1755889727216336,498.9312977099237,498.2748091603053,1.0229007633587786,0.03564453125,3.9609375,1.090576171875
1755889727221307,498.58015267175574,498.6641221374046,0.2824427480916031,0.119873046875,3.99560546875,1.066650390625
1755889727226299,498.8702290076336,498.17557251908397,500.1145038167939,0.007080078125,3.98193359375,1.060546875
1755889727231301,498.4580152671756,498.48854961832063,0.7557251908396947,0.1015625,3.97412109375,1.092041015625
1755889727236460,498.618320610687,498.40458015267177,499.8625954198473,0.046630859375,0.004638671875,1.06103515625
1755889727241324,498.91603053435114,498.4503816793893,1.0,0.06689453125,3.953125,1.06298828125
1755889727246383,498.7175572519084,498.58015267175574,499.80152671755724,0.067626953125,0.010009765625,1.08935546875
1755889727251392,499.1374045801527,498.4732824427481,0.8549618320610687,0.0400390625,3.956298828125,1.07861328125
1755889727256390,498.58015267175574,498.7175572519084,0.1450381679389313,0.114501953125,3.99658203125,1.065185546875
1755889727261316,499.25954198473283,498.44274809160305,0.17557251908396945,0.005126953125,3.970703125,1.073974609375
1755889727266311,498.6412213740458,498.57251908396944,0.6946564885496184,0.09765625,3.98095703125,1.09375
1755889727271380,499.21374045801525,498.3587786259542,499.9236641221374,0.044189453125,3.99658203125,1.07373046875
1755889727276355,498.7251908396947,498.5496183206107,1.015267175572519,0.06689453125,3.943115234375,1.064697265625
1755889727281377,498.51908396946567,498.7175572519084,499.8625954198473,0.06591796875,0.011962890625,1.083251953125
1755889727286359,499.22137404580155,498.21374045801525,0.9389312977099237,0.0361328125,3.955078125,1.0732421875
1755889727291369,498.40458015267177,498.90076335877865,499.9312977099237,0.08984375,0.007568359375,1.07470703125
1755889727296350,498.9770992366412,498.412213740458,0.4961832061068702,0.024169921875,3.9599609375,1.0625
1755889727301315,498.48854961832063,498.42748091603056,0.2824427480916031,0.1083984375,3.985107421875,1.06640625
1755889727306302,499.0381679389313,498.206106870229,499.9083969465649,0.006103515625,3.983154296875,1.07861328125
1755889727311380,498.6412213740458,498.64885496183206,0.9618320610687023,0.107421875,3.968017578125,1.0849609375
1755889727316525,498.7328244274809,498.48091603053433,499.5648854961832,0.05126953125,0.0048828125,1.059326171875
1755889727321353,498.9389312977099,498.25954198473283,1.0687022900763359,0.03662109375,3.950439453125,1.078857421875
1755889727326385,498.67175572519085,498.6412213740458,499.9236641221374,0.0869140625,0.016357421875,1.09130859375
1755889727331412,498.9770992366412,498.31297709923666,1.0,0.028076171875,3.9560546875,1.073974609375
1755889727336850,498.3206106870229,498.7175572519084,500.0,0.108642578125,0.0,1.072509765625
1755889727341305,499.1832061068702,498.0229007633588,500.1679389312977,3.999267578125,3.985107421875,1.072265625
1755889727346306,498.8473282442748,498.36641221374043,0.732824427480916,0.097900390625,3.968017578125,1.07568359375
1755889727351315,498.793893129771,498.3587786259542,499.68702290076334,0.052001953125,0.0048828125,1.050048828125
1755889727356353,498.6564885496183,498.57251908396944,0.9312977099236641,0.03857421875,3.943359375,1.06787109375
1755889727361417,498.6412213740458,498.39694656488547,499.62595419847327,0.082275390625,0.00634765625,1.08203125
1755889727366350,499.2290076335878,498.1679389312977,1.0916030534351144,0.03466796875,3.954345703125,1.07177734375
1755889727371355,498.48854961832063,499.1145038167939,0.08396946564885496,0.1064453125,0.00732421875,1.0986328125
1755889727376950,499.64885496183206,498.41984732824426,0.48091603053435117,0.034423828125,3.9609375,1.071044921875
1755889727381306,498.77862595419845,498.6106870229008,0.6412213740458015,0.10302734375,3.98046875,1.072021484375
1755889727386382,499.23664122137404,498.3435114503817,499.9618320610687,0.0068359375,3.98583984375,1.07861328125
1755889727391374,498.3435114503817,498.70992366412213,1.1526717557251909,0.109619140625,3.96142578125,1.081298828125
1755889727396320,498.8625954198473,498.44274809160305,499.64885496183206,0.056396484375,0.00439453125,1.06982421875
1755889727401370,499.10687022900765,498.25954198473283,1.16793893129771,0.037109375,3.95947265625,1.080322265625
1755889727406343,498.76335877862596,498.9236641221374,499.98473282442745,0.108642578125,0.012451171875,1.080810546875
1755889727411346,498.9236641221374,498.206106870229,0.17557251908396945,0.021240234375,3.9619140625,1.05712890625
1755889727416352,498.4351145038168,498.44274809160305,500.1145038167939,0.09912109375,3.981201171875,1.0888671875
1755889727421321,499.0,498.42748091603056,500.1603053435114,0.029052734375,3.99609375,1.073974609375
1755889727426365,498.64885496183206,498.5648854961832,0.8015267175572519,0.10400390625,3.956787109375,1.0625
1755889727431340,499.0534351145038,498.5419847328244,499.87786259541986,0.056396484375,0.01025390625,1.055419921875
1755889727436368,498.9236641221374,498.2442748091603,0.9923664122137404,0.04150390625,3.951171875,1.079833984375
1755889727441338,498.618320610687,498.587786259542,499.7557251908397,0.108642578125,0.008544921875,1.0810546875
1755889727446354,498.8854961832061,498.31297709923666,0.9618320610687023,0.02978515625,3.961669921875,1.055419921875
1755889727451318,498.44274809160305,498.58015267175574,500.19847328244276,0.102783203125,3.986328125,1.083984375
1755889727456359,499.1679389312977,498.1374045801527,0.1450381679389313,0.013427734375,3.970458984375,1.06396484375
1755889727461312,498.46564885496184,498.60305343511453,0.5648854961832062,0.09912109375,3.982666015625,1.088134765625
1755889727466337,498.87786259541986,498.2977099236641,499.85496183206106,0.04052734375,0.001953125,1.069580078125
1755889727471301,498.8473282442748,498.3358778625954,1.1374045801526718,0.08056640625,3.955322265625,1.06005859375
1755889727476369,498.78625954198475,498.7480916030534,499.64885496183206,0.06103515625,0.01318359375,1.067138671875
1755889727481397,499.206106870229,498.23664122137404,1.1984732824427482,0.0361328125,3.959228515625,1.08349609375
1755889727486408,498.48091603053433,498.9083969465649,500.1297709923664,0.125244140625,0.002197265625,1.072265625
1755889727491366,499.206106870229,498.36641221374043,0.20610687022900764,0.017333984375,3.96484375,1.056640625
1755889727496358,498.5419847328244,498.48854961832063,0.5267175572519084,0.097412109375,3.978759765625,1.0927734375
1755889727501384,498.9770992366412,498.40458015267177,500.2519083969466,0.031005859375,3.99462890625,1.078857421875
1755889727506322,498.618320610687,498.68702290076334,1.0381679389312977,0.084228515625,3.9560546875,1.056640625
1755889727511301,498.793893129771,498.55725190839695,499.64885496183206,0.06396484375,0.010009765625,1.076416015625
1755889727516430,499.0610687022901,498.2290076335878,0.8244274809160306,0.052001953125,3.95166015625,1.0732421875
1755889727521348,498.76335877862596,498.7022900763359,499.74045801526717,0.115966796875,0.00048828125,1.072265625
1755889727526446,499.01526717557255,498.2290076335878,0.6564885496183206,0.0341796875,3.953125,1.074951171875
1755889727531340,498.4732824427481,498.7175572519084,0.1984732824427481,0.116455078125,3.990478515625,1.06494140625
1755889727536342,499.1526717557252,498.14503816793894,500.0458015267176,0.00439453125,3.974365234375,1.083251953125
1755889727541317,498.48854961832063,498.7557251908397,0.7709923664122137,0.10791015625,3.974365234375,1.0888671875
1755889727546304,498.9465648854962,498.5038167938931,499.74045801526717,0.04296875,0.00439453125,1.06982421875
1755889727551391,498.76335877862596,498.36641221374043,1.0076335877862594,0.052490234375,3.95166015625,1.065185546875
1755889727556309,498.6793893129771,498.51145038167937,499.8702290076336,0.072998046875,0.008544921875,1.08154296875
1755889727561450,499.1832061068702,498.412213740458,0.6946564885496184,0.029541015625,3.953369140625,1.078125
1755889727566380,498.68702290076334,498.9083969465649,500.206106870229,0.10986328125,3.991943359375,1.068115234375
1755889727571397,499.25954198473283,498.206106870229,0.4351145038167939,0.007568359375,3.9716796875,1.0693359375
1755889727576372,498.6412213740458,498.48091603053433,0.6412213740458015,0.10205078125,3.9716796875,1.088623046875
1755889727581307,498.74045801526717,498.62595419847327,499.80916030534354,0.047119140625,0.00146484375,1.061767578125
1755889727586445,498.7251908396947,498.5419847328244,1.1908396946564885,0.062255859375,3.94189453125,1.06982421875
1755889727591357,498.8473282442748,498.5038167938931,499.6793893129771,0.067626953125,0.008056640625,1.088623046875
1755889727596359,499.206106870229,498.3587786259542,0.9694656488549618,0.03271484375,3.95654296875,1.0810546875
1755889727601352,498.5648854961832,498.70992366412213,499.89312977099235,0.117431640625,3.996826171875,1.07080078125
1755889727606378,499.03053435114504,498.19847328244276,0.5038167938931297,0.03076171875,3.955322265625,1.0634765625
1755889727611498,498.2442748091603,498.4503816793893,0.16793893129770993,0.099609375,3.987060546875,1.06103515625
1755889727616370,499.17557251908397,498.0610687022901,0.022900763358778626,0.00439453125,3.98291015625,1.063232421875
1755889727621396,498.6106870229008,498.23664122137404,0.7862595419847328,0.113037109375,3.96728515625,1.06396484375
1755889727626307,498.46564885496184,498.381679389313,499.8320610687023,0.0419921875,0.001953125,1.05322265625
1755889727631311,498.55725190839695,498.1145038167939,1.0076335877862594,0.038818359375,3.9599609375,1.064208984375
1755889727636517,498.0,498.58015267175574,499.96946564885496,0.0849609375,0.009765625,1.06787109375
1755889727641385,498.4503816793893,498.2977099236641,0.8015267175572519,0.025390625,3.96630859375,1.055419921875
1755889727646411,497.7328244274809,498.7175572519084,500.0610687022901,0.109375,3.98681640625,1.052734375
1755889727651383,498.68702290076334,498.14503816793894,500.1679389312977,0.00634765625,3.984130859375,1.07275390625
1755889727656387,498.206106870229,498.7251908396947,0.44274809160305345,0.105712890625,3.965576171875,1.09375
1755889727661312,498.9312977099237,498.99236641221376,499.70992366412213,0.061767578125,3.990966796875,1.077880859375
1755889727666330,498.618320610687,499.10687022900765,0.9847328244274809,0.054931640625,3.949951171875,1.103515625
1755889727671354,498.8625954198473,498.89312977099235,499.7175572519084,0.076171875,0.004150390625,1.111572265625
1755889727676636,499.618320610687,498.36641221374043,0.9923664122137404,0.036376953125,3.95947265625,1.116943359375
1755889727681386,499.03053435114504,498.6106870229008,499.87786259541986,0.114990234375,3.986572265625,1.091796875
1755889727686408,499.48091603053433,497.8396946564886,0.3435114503816794,0.015380859375,3.966552734375,1.0810546875
1755889727691356,499.0,498.2748091603053,0.13740458015267176,0.10595703125,3.986572265625,1.08349609375
1755889727696432,499.1145038167939,498.32824427480915,500.1603053435114,0.034423828125,3.996337890625,1.094482421875
1755889727701334,498.5419847328244,498.8396946564886,0.7404580152671756,0.11572265625,3.9560546875,1.0771484375
1755889727706323,498.6641221374046,498.60305343511453,499.7709923664122,0.06640625,0.01416015625,1.062744140625
1755889727711809,499.19083969465646,497.9465648854962,0.8931297709923665,0.03955078125,3.94873046875,1.074951171875
1755889727716378,498.55725190839695,498.2519083969466,499.77862595419845,0.106689453125,0.011962890625,1.07275390625
1755889727721405,499.1297709923664,497.5038167938931,0.48091603053435117,0.020751953125,3.966064453125,1.05322265625
1755889727726366,498.23664122137404,498.2671755725191,0.4198473282442748,0.120361328125,3.987548828125,1.072265625
1755889727731361,498.80916030534354,498.2977099236641,500.1526717557252,0.0283203125,3.994873046875,1.06591796875
1755889727736944,498.1297709923664,498.7557251908397,0.7633587786259542,0.110595703125,3.988525390625,1.08447265625
1755889727741317,498.40458015267177,498.6564885496183,499.9389312977099,0.063720703125,0.01123046875,1.049072265625
1755889727746306,498.8473282442748,498.32824427480915,0.8702290076335878,0.03759765625,3.947998046875,1.0556640625
1755889727751326,498.8625954198473,498.37404580152673,499.8625954198473,0.098876953125,0.008056640625,1.05712890625
1755889727756502,499.6564885496183,497.99236641221376,0.7557251908396947,0.041015625,3.94970703125,1.06640625
1755889727761387,498.618320610687,498.6412213740458,500.0229007633588,0.1240234375,3.990234375,1.035400390625
1755889727766410,498.80152671755724,498.59541984732823,499.8702290076336,0.0361328125,3.97705078125,1.03564453125
1755889727771352,497.8473282442748,499.6641221374046,500.0458015267176,0.109375,3.989501953125,1.06689453125
1755889727776391,498.23664122137404,500.0916030534351,500.0916030534351,0.027587890625,3.986572265625,1.077392578125
1755889727781324,498.40458015267177,499.19847328244276,1.8778625954198473,0.05615234375,3.95263671875,1.076416015625
1755889727786317,498.7480916030534,498.44274809160305,499.91603053435114,0.056396484375,0.009765625,1.0712890625
1755889727791316,499.8320610687023,497.51908396946567,0.9618320610687023,0.0302734375,3.956787109375,1.09716796875
1755889727796341,498.3435114503817,498.39694656488547,499.77862595419845,0.11474609375,0.00830078125,1.10791015625
1755889727801332,498.91603053435114,498.67175572519085,0.2366412213740458,0.0322265625,3.967529296875,1.084716796875
1755889727806431,497.78625954198475,499.5648854961832,0.6412213740458015,0.078857421875,3.978271484375,1.1064453125
1755889727811393,498.4961832061069,498.90076335877865,499.82442748091603,0.027099609375,3.9873046875,1.1064453125
1755889727816598,498.618320610687,498.82442748091603,0.916030534351145,0.075927734375,3.94677734375,1.09228515625
1755889727821342,499.42748091603056,497.98473282442745,499.9770992366412,0.031005859375,3.99609375,1.08203125
1755889727826379,499.7709923664122,497.19083969465646,0.9618320610687023,0.02880859375,3.947265625,1.094482421875
1755889727831319,499.01526717557255,497.60305343511453,500.0916030534351,0.09326171875,0.00146484375,1.076171875
1755889727836441,499.0458015267176,497.7709923664122,0.6717557251908397,0.034423828125,3.96435546875,1.053955078125
1755889727841405,497.98473282442745,498.6641221374046,0.37404580152671757,0.1142578125,0.0,1.0615234375
1755889727846550,498.3358778625954,498.7328244274809,500.1679389312977,0.01318359375,3.9736328125,1.058349609375
1755889727851922,497.9541984732824,499.1679389312977,0.8473282442748091,0.0703125,3.957763671875,1.071533203125
1755889727856483,499.0763358778626,498.48854961832063,499.9312977099237,0.033203125,0.0,1.056640625
1755889727862230,499.29007633587787,498.2671755725191,0.7862595419847328,0.08056640625,3.953125,1.06640625
1755889727866856,499.19083969465646,497.9770992366412,499.4580152671756,0.052001953125,0.0126953125,1.0615234375
1755889727871902,498.9770992366412,497.98473282442745,1.1374045801526718,0.041015625,3.947998046875,1.064453125
1755889727876423,498.5496183206107,498.8702290076336,499.77862595419845,0.108642578125,0.000244140625,1.059326171875
1755889727881571,498.9083969465649,498.5419847328244,500.1679389312977,0.020263671875,3.967529296875,1.047607421875
1755889727886350,498.35114503816794,499.3358778625954,0.816793893129771,0.0791015625,3.966552734375,1.084228515625
1755889727891511,499.206106870229,498.6641221374046,500.0610687022901,0.040283203125,3.995361328125,1.063720703125
1755889727896639,498.8702290076336,498.7251908396947,1.0534351145038168,0.0849609375,3.958251953125,1.094970703125
1755889727901571,498.8702290076336,498.58015267175574,499.77862595419845,0.052490234375,0.007080078125,1.08349609375
1755889727906592,499.1526717557252,498.09923664122135,1.0534351145038168,0.053466796875,3.947509765625,1.07666015625
1755889727912104,498.381679389313,498.63358778625957,499.7022900763359,0.069580078125,0.02197265625,1.09765625
1755889727916379,498.6641221374046,498.3358778625954,0.5267175572519084,0.02099609375,3.9716796875,1.073974609375
1755889727921414,498.0610687022901,498.91603053435114,0.07633587786259542,0.1025390625,3.992919921875,1.07666015625
1755889727926399,499.00763358778624,498.4732824427481,499.8396946564886,0.009521484375,3.980712890625,1.083984375
1755889727931348,498.77862595419845,498.44274809160305,0.9694656488549618,0.094482421875,3.972412109375,1.105224609375
1755889727936376,498.8702290076336,498.2977099236641,499.7557251908397,0.057861328125,0.005615234375,1.080078125
1755889727941362,499.25954198473283,497.90076335877865,1.297709923664122,0.058837890625,3.948486328125,1.07861328125
1755889727946354,498.4961832061069,498.32824427480915,499.80916030534354,0.086181640625,0.015625,1.089111328125
1755889727951347,498.9389312977099,498.206106870229,1.083969465648855,0.037841796875,3.952880859375,1.08203125
1755889727956360,498.37404580152673,498.6641221374046,0.03816793893129771,0.120849609375,0.000732421875,1.06884765625
1755889727961479,499.1526717557252,497.8320610687023,0.03816793893129771,0.031982421875,3.986328125,1.0732421875
1755889727966427,498.35114503816794,498.53435114503816,0.7938931297709924,0.10009765625,3.964111328125,1.082763671875
1755889727971417,499.0458015267176,498.60305343511453,499.91603053435114,0.064208984375,0.010986328125,1.0712890625
1755889727976344,498.8854961832061,498.17557251908397,1.0076335877862594,0.072021484375,3.9443359375,1.059326171875
1755889727981375,498.5648854961832,498.6412213740458,499.89312977099235,0.07421875,0.021240234375,1.070556640625
1755889727986510,499.21374045801525,498.3893129770992,1.0610687022900764,0.05419921875,3.951171875,1.069580078125
1755889727991374,498.21374045801525,499.23664122137404,0.16030534351145037,0.125,3.993896484375,1.05517578125
1755889727996451,498.6106870229008,498.98473282442745,0.19083969465648856,0.056396484375,3.966552734375,1.060546875
1755889728001356,498.44274809160305,499.381679389313,0.40458015267175573,0.10888671875,3.988525390625,1.066650390625
1755889728006345,499.0,498.8702290076336,499.8473282442748,0.015625,3.994140625,1.0732421875
1755889728011405,498.62595419847327,498.7557251908397,0.8854961832061069,0.1005859375,3.957763671875,1.079833984375
1755889728016350,498.8396946564886,498.67175572519085,499.85496183206106,0.062255859375,0.016845703125,1.056640625
1755889728021431,499.1297709923664,498.1603053435114,0.9923664122137404,0.048828125,3.947509765625,1.087890625
1755889728026358,498.19083969465646,498.99236641221376,500.17557251908397,0.08642578125,0.01513671875,1.08251953125
1755889728031412,498.63358778625957,498.74045801526717,0.48091603053435117,0.038818359375,3.9580078125,1.08203125
1755889728036356,498.3206106870229,499.1603053435114,0.20610687022900764,0.1044921875,3.985595703125,1.07470703125
1755889728041453,498.99236641221376,498.31297709923666,500.23664122137404,0.0048828125,3.98388671875,1.08056640625
1755889728046376,498.8167938931298,498.2290076335878,0.8396946564885496,0.08837890625,3.95068359375,1.098388671875
1755889728051385,499.3206106870229,497.99236641221376,500.08396946564886,0.05322265625,0.010009765625,1.0703125
1755889728056392,499.0610687022901,497.7328244274809,0.9007633587786259,0.0576171875,3.942626953125,1.08447265625
1755889728061338,498.48091603053433,498.381679389313,500.1297709923664,0.080322265625,0.019287109375,1.09814453125
1755889728066316,498.9465648854962,498.17557251908397,0.9007633587786259,0.039306640625,3.9521484375,1.076171875
1755889728072610,498.51908396946567,498.9770992366412,499.9389312977099,0.05517578125,0.011474609375,1.08544921875
1755889728076519,499.17557251908397,498.0916030534351,0.26717557251908397,0.019775390625,3.95166015625,1.06640625
1755889728081350,498.8320610687023,498.206106870229,0.8854961832061069,0.080810546875,3.969970703125,1.0849609375
1755889728086343,499.1679389312977,497.8625954198473,500.10687022900765,0.02392578125,3.997802734375,1.06494140625
1755889728091341,498.67175572519085,498.74045801526717,1.4274809160305344,0.09521484375,3.95849609375,1.061279296875
1755889728096488,498.59541984732823,499.09923664122135,499.53435114503816,0.072021484375,0.011962890625,1.063232421875
1755889728101399,498.793893129771,498.3893129770992,0.7633587786259542,0.0224609375,3.9404296875,1.0673828125
1755889728106473,498.60305343511453,498.6412213740458,499.91603053435114,0.07861328125,0.004638671875,1.0625
1755889728111466,499.4580152671756,497.9083969465649,0.3893129770992366,0.02783203125,3.966552734375,1.053955078125
1755889728116347,498.58015267175574,498.42748091603056,0.4961832061068702,0.087890625,3.979248046875,1.072021484375
1755889728122701,499.1603053435114,498.21374045801525,0.24427480916030533,0.010009765625,3.96875,1.058837890625
1755889728126407,498.793893129771,498.60305343511453,0.7557251908396947,0.0888671875,3.960205078125,1.083251953125
1755889728131338,498.57251908396944,498.8854961832061,499.7328244274809,0.054931640625,0.008056640625,1.065185546875
1755889728136318,498.7480916030534,498.5038167938931,0.8549618320610687,0.02490234375,3.9404296875,1.07763671875
1755889728142250,498.82442748091603,498.69465648854964,499.91603053435114,0.050048828125,0.012451171875,1.08203125
1755889728146535,499.4351145038168,498.17557251908397,1.1297709923664123,0.0322265625,3.9482421875,1.08642578125
1755889728151395,498.14503816793894,499.0229007633588,0.5190839694656488,0.092041015625,0.0048828125,1.074462890625
1755889728156467,498.9618320610687,498.4580152671756,0.6641221374045801,0.021728515625,3.967041015625,1.068359375
1755889728161406,498.2748091603053,498.64885496183206,1.8625954198473282,0.064453125,3.961669921875,1.09033203125
1755889728166333,499.0916030534351,497.8167938931298,499.9618320610687,0.075439453125,3.993408203125,1.086181640625
1755889728171965,498.62595419847327,498.2748091603053,0.5954198473282443,0.072509765625,3.958251953125,1.072509765625
1755889728176488,498.7022900763359,498.4961832061069,0.1984732824427481,0.05078125,0.001708984375,1.063720703125
1755889728181331,498.85496183206106,498.0916030534351,1.0381679389312977,0.047119140625,3.961181640625,1.086181640625
1755889728186359,498.1145038167939,499.0229007633588,0.6106870229007634,0.09228515625,3.99755859375,1.0830078125
1755889728191324,499.22137404580155,498.51145038167937,0.7404580152671756,0.044677734375,3.96923828125,1.068603515625
1755889728196522,498.4503816793893,498.64885496183206,1.4045801526717556,0.067626953125,3.9658203125,1.072021484375
1755889728201508,499.55725190839695,497.40458015267177,1.1984732824427482,0.024658203125,3.9931640625,1.073486328125
1755889728206405,498.80916030534354,498.0229007633588,2.4198473282442747,0.066162109375,3.96142578125,1.06689453125
1755889728211443,498.6412213740458,498.4351145038168,3.6030534351145036,0.010498046875,3.96826171875,1.068359375
1755889728216332,499.3587786259542,498.7557251908397,5.183206106870229,0.01416015625,3.96337890625,1.06689453125
1755889728222059,498.0916030534351,498.32824427480915,5.679389312977099,0.0283203125,3.966552734375,1.059814453125
1755889728226342,499.618320610687,497.51908396946567,5.1603053435114505,0.063232421875,3.98388671875,1.0517578125
1755889728231370,499.3206106870229,497.22137404580155,4.580152671755725,0.11181640625,3.99462890625,1.072265625
1755889728236324,499.793893129771,496.9236641221374,2.0229007633587788,0.095947265625,0.01416015625,1.058837890625
1755889728241549,498.55725190839695,497.68702290076334,1.83206106870229,0.11083984375,0.00048828125,1.073486328125
1755889728246385,498.6793893129771,498.00763358778624,0.46564885496183206,0.095703125,0.005126953125,1.07666015625
1755889728251762,498.793893129771,498.8396946564886,1.1984732824427482,0.077880859375,3.955322265625,1.059814453125
1755889728256366,498.3358778625954,498.62595419847327,0.816793893129771,0.055419921875,0.00146484375,1.0810546875
1755889728261345,499.55725190839695,498.1145038167939,1.6870229007633588,0.05224609375,3.961181640625,1.087646484375
1755889728266322,498.48854961832063,498.7022900763359,2.564885496183206,0.079345703125,3.9814453125,1.0791015625
1755889728272067,499.51908396946567,498.4503816793893,3.0610687022900764,0.05126953125,3.96923828125,1.0791015625
1755889728276383,497.8625954198473,498.64885496183206,3.9923664122137406,0.05712890625,3.97509765625,1.0859375
1755889728281346,499.29007633587787,498.0534351145038,2.5267175572519083,0.086181640625,3.99169921875,1.083740234375
1755889728286339,498.74045801526717,498.8167938931298,2.1755725190839694,0.095947265625,3.97216796875,1.064697265625
1755889728291334,498.2671755725191,498.8320610687023,1.5954198473282444,0.06005859375,3.996337890625,1.078857421875
1755889728296455,498.5648854961832,499.5419847328244,2.7786259541984735,0.061279296875,3.9677734375,1.077392578125
1755889728301438,497.2519083969466,500.10687022900765,2.213740458015267,0.09375,0.000732421875,1.080810546875
1755889728306398,498.68702290076334,499.5648854961832,1.3740458015267176,0.09326171875,3.97265625,1.0869140625
1755889728311386,498.3587786259542,499.60305343511453,1.3511450381679388,0.079833984375,3.982421875,1.06396484375
1755889728316314,499.5496183206107,497.9083969465649,0.6564885496183206,0.021484375,3.981201171875,1.0712890625
1755889728321896,498.78625954198475,498.0,0.9312977099236641,0.087890625,3.980224609375,1.080810546875
1755889728326378,498.90076335877865,498.09923664122135,0.030534351145038167,0.065673828125,3.995361328125,1.076171875
1755889728331353,499.08396946564886,498.1526717557252,0.29770992366412213,0.072998046875,3.952880859375,1.054443359375
1755889728336348,498.48091603053433,498.618320610687,0.2900763358778626,0.03857421875,0.006591796875,1.07470703125
1755889728341320,499.2977099236641,498.32824427480915,0.9389312977099237,0.05615234375,3.96923828125,1.070556640625
1755889728346594,498.1603053435114,499.1603053435114,0.5725190839694656,0.086669921875,3.9853515625,1.063232421875
1755889728351447,499.7709923664122,497.7557251908397,0.7633587786259542,0.020263671875,3.970458984375,1.064208984375
1755889728356435,498.9541984732824,497.8702290076336,1.7557251908396947,0.062744140625,3.972900390625,1.086181640625
1755889728361366,499.58015267175574,497.2977099236641,0.9312977099236641,0.0390625,3.991455078125,1.0732421875
1755889728366328,499.12213740458014,497.9083969465649,2.030534351145038,0.064208984375,3.95947265625,1.070068359375
1755889728371498,499.0458015267176,497.8396946564886,1.7557251908396947,0.047119140625,3.988037109375,1.06787109375
1755889728376329,499.10687022900765,498.12213740458014,3.045801526717557,0.0498046875,3.968017578125,1.088134765625
1755889728381334,497.9312977099237,499.2290076335878,4.419847328244275,0.065185546875,3.968994140625,1.0751953125
1755889728386415,498.9618320610687,499.0610687022901,5.068702290076335,0.05029296875,3.9677734375,1.07861328125
1755889728391324,498.19847328244276,499.1679389312977,5.740458015267175,0.049072265625,3.967529296875,1.089599609375
1755889728396386,499.0610687022901,499.99236641221376,3.954198473282443,0.04931640625,0.0029296875,1.104248046875
1755889728401537,498.793893129771,498.46564885496184,5.809160305343512,0.079833984375,3.96923828125,1.09765625
1755889728406372,498.5648854961832,498.1374045801527,5.938931297709924,0.05517578125,3.983154296875,1.046630859375
